Data from 0.25_n=4_RamanShift_02.txt Node
Date: Mon Mar 19 12:13:13 IST 2018
User: aro
Spectrometer: QEPB0276
Trigger mode: 0
Integration Time (sec): 5.000000E0
Scans to average: 1
Electric dark correction enabled: true
Nonlinearity correction enabled: false
Boxcar width: 0
XAxis mode: Raman Shifts
Number of Pixels in Spectrum: 1044
>>>>>Begin Spectral Data<<<<<
160.701	1.2
166.742	2.2
172.777	4.2
178.805	10.2
184.826	25.2
190.841	42.2
196.849	72.2
202.85	79.2
208.845	83.2
214.833	91.2
220.815	87.2
226.789	99.2
232.758	94.2
238.719	97.2
244.674	92.2
250.623	95.2
256.565	94.2
262.5	91.2
268.429	93.2
274.351	100.2
280.267	99.2
286.176	99.2
292.079	94.2
297.975	96.2
303.865	97.2
309.748	94.2
315.625	97.2
321.495	98.2
327.359	101.2
333.217	98.2
339.068	97.2
344.912	102.2
350.751	101.2
356.583	104.2
362.408	94.2
368.227	97.2
374.04	106.2
379.847	105.2
385.647	112.2
391.44	116.2
397.228	116.2
403.009	122.2
408.784	122.2
414.553	134.2
420.315	140.2
426.071	147.2
431.821	127.2
437.565	107.2
443.302	105.2
449.033	111.2
454.758	109.2
460.477	106.2
466.189	106.2
471.896	95.2
477.596	98.2
483.29	97.2
488.978	95.2
494.66	96.2
500.335	96.2
506.005	81.2
511.668	80.2
517.325	76.2
522.977	71.2
528.622	65.2
534.261	61.2
539.894	61.2
545.521	59.2
551.141	54.2
556.756	58.2
562.365	51.2
567.968	51.2
573.565	54.2
579.155	53.2
584.74	46.2
590.319	52.2
595.892	52.2
601.459	49.2
607.02	50.2
612.575	50.2
618.124	49.2
623.667	49.2
629.204	47.2
634.735	46.2
640.261	47.2
645.781	49.2
651.294	57.2
656.802	56.2
662.304	49.2
667.8	49.2
673.29	47.2
678.775	47.2
684.254	45.2
689.726	37.2
695.193	40.2
700.655	40.2
706.11	40.2
711.56	43.2
717.004	40.2
722.442	37.2
727.874	41.2
733.301	39.2
738.722	42.2
744.137	41.2
749.547	35.2
754.951	41.2
760.349	46.2
765.741	43.2
771.128	41.2
776.509	47.2
781.885	46.2
787.254	47.2
792.618	44.2
797.977	49.2
803.33	56.2
808.677	65.2
814.019	67.2
819.355	69.2
824.686	55.2
830.011	51.2
835.33	54.2
840.644	59.2
845.952	61.2
851.255	63.2
856.552	54.2
861.844	41.2
867.13	42.2
872.41	43.2
877.686	35.2
882.955	31.2
888.219	39.2
893.478	35.2
898.731	37.2
903.979	38.2
909.221	42.2
914.458	34.2
919.69	35.2
924.916	36.2
930.136	28.2
935.351	34.2
940.561	35.2
945.766	41.2
950.965	37.2
956.158	37.2
961.347	37.2
966.529	40.2
971.707	34.2
976.879	39.2
982.046	38.2
987.208	36.2
992.364	36.2
997.515	37.2
1002.66	42.2
1007.801	51.2
1012.936	38.2
1018.066	37.2
1023.19	34.2
1028.309	33.2
1033.423	37.2
1038.532	41.2
1043.636	41.2
1048.734	43.2
1053.827	42.2
1058.915	35.2
1063.998	39.2
1069.075	30.2
1074.147	34.2
1079.214	32.2
1084.276	31.2
1089.333	31.2
1094.385	34.2
1099.431	35.2
1104.472	32.2
1109.509	33.2
1114.54	29.2
1119.565	31.2
1124.586	34.2
1129.602	29.2
1134.613	30.2
1139.618	32.2
1144.619	37.2
1149.614	40.2
1154.604	48.2
1159.589	54.2
1164.57	51.2
1169.545	46.2
1174.515	46.2
1179.48	38.2
1184.44	34.2
1189.395	29.2
1194.345	31.2
1199.29	29.2
1204.23	29.2
1209.165	33.2
1214.095	30.2
1219.021	35.2
1223.941	40.2
1228.856	34.2
1233.766	36.2
1238.672	29.2
1243.572	32.2
1248.467	30.2
1253.358	33.2
1258.244	34.2
1263.124	26.2
1268	26.2
1272.871	28.2
1277.737	29.2
1282.599	31.2
1287.455	25.2
1292.306	26.2
1297.153	27.2
1301.995	29.2
1306.832	31.2
1311.664	32.2
1316.491	32.2
1321.314	36.2
1326.132	41.2
1330.945	48.2
1335.753	46.2
1340.556	46.2
1345.354	33.2
1350.148	33.2
1354.937	31.2
1359.722	36.2
1364.501	37.2
1369.276	39.2
1374.046	37.2
1378.811	28.2
1383.572	26.2
1388.327	26.2
1393.079	22.2
1397.825	22.2
1402.567	24.2
1407.304	26.2
1412.036	26.2
1416.764	23.2
1421.487	24.2
1426.205	23.2
1430.919	25.2
1435.628	28.2
1440.333	37.2
1445.032	37.2
1449.727	35.2
1454.418	45.2
1459.104	57.2
1463.785	58.2
1468.462	57.2
1473.134	46.2
1477.802	35.2
1482.465	24.2
1487.123	25.2
1491.777	22.2
1496.426	24.2
1501.071	20.2
1505.711	23.2
1510.347	24.2
1514.978	20.2
1519.604	21.2
1524.226	22.2
1528.844	21.2
1533.457	19.2
1538.065	22.2
1542.669	20.2
1547.269	18.2
1551.864	18.2
1556.454	19.2
1561.041	20.2
1565.622	14.2
1570.199	17.2
1574.772	17.2
1579.34	20.2
1583.904	19.2
1588.464	18.2
1593.019	15.2
1597.569	17.2
1602.115	18.2
1606.657	18.2
1611.195	21.2
1615.728	19.2
1620.256	19.2
1624.78	20.2
1629.3	18.2
1633.816	18.2
1638.327	17.2
1642.834	18.2
1647.336	16.2
1651.834	19.2
1656.328	19.2
1660.817	20.2
1665.302	21.2
1669.783	18.2
1674.259	15.2
1678.732	16.2
1683.199	17.2
1687.663	14.2
1692.122	14.2
1696.577	15.2
1701.028	19.2
1705.474	20.2
1709.917	18.2
1714.355	12.2
1718.788	14.2
1723.218	12.2
1727.643	9.2
1732.064	13.2
1736.481	11.2
1740.893	14.2
1745.301	22.2
1749.705	15.2
1754.105	18.2
1758.501	11.2
1762.893	11.2
1767.28	6.2
1771.663	10.2
1776.042	8.2
1780.417	14.2
1784.787	18.2
1789.154	13.2
1793.516	16.2
1797.874	13.2
1802.228	10.2
1806.578	6.2
1810.924	17.2
1815.266	6.2
1819.603	9.2
1823.937	16.2
1828.266	14.2
1832.591	12.2
1836.913	11.2
1841.23	10.2
1845.543	10.2
1849.852	5.2
1854.156	6.2
1858.457	9.2
1862.754	14.2
1867.047	11.2
1871.335	14.2
1875.62	10.2
1879.9	10.2
1884.177	10.2
1888.449	8.2
1892.718	10.2
1896.982	10.2
1901.243	11.2
1905.499	10.2
1909.752	10.2
1914	11.2
1918.245	9.2
1922.485	9.2
1926.722	13.2
1930.954	9.2
1935.183	9.2
1939.408	10.2
1943.628	11.2
1947.845	13.2
1952.058	14.2
1956.267	10.2
1960.472	8.2
1964.673	9.2
1968.87	7.2
1973.063	11.2
1977.252	7.2
1981.438	8.2
1985.619	10.2
1989.797	10.2
1993.971	5.2
1998.14	9.2
2002.306	9.2
2006.469	10.2
2010.627	12.2
2014.781	11.2
2018.932	9.2
2023.078	7.2
2027.221	4.2
2031.36	3.2
2035.495	7.2
2039.627	8.2
2043.754	10.2
2047.878	11.2
2051.998	11.2
2056.114	6.2
2060.226	12.2
2064.334	4.2
2068.439	5.2
2072.54	4.2
2076.637	7.2
2080.73	11.2
2084.82	10.2
2088.906	12.2
2092.988	9.2
2097.066	3.2
2101.14	7.2
2105.211	7.2
2109.278	4.2
2113.342	8.2
2117.401	8.2
2121.457	9.2
2125.509	10.2
2129.558	6.2
2133.602	8.2
2137.643	3.2
2141.681	4.2
2145.714	5.2
2149.744	5.2
2153.77	7.2
2157.793	12.2
2161.812	8.2
2165.827	7.2
2169.838	5.2
2173.846	0.2
2177.851	-0.8
2181.851	4.2
2185.848	4.2
2189.841	5.2
2193.831	6.2
2197.817	12.2
2201.799	7.2
2205.778	4.2
2209.753	4.2
2213.725	3.2
2217.693	2.2
2221.657	1.2
2225.618	6.2
2229.575	10.2
2233.529	10.2
2237.479	1.2
2241.425	4.2
2245.368	4.2
2249.307	1.2
2253.243	5.2
2257.175	3.2
2261.104	8.2
2265.029	5.2
2268.95	4.2
2272.868	3.2
2276.783	5.2
2280.694	7.2
2284.601	4.2
2288.505	3.2
2292.405	5.2
2296.302	3.2
2300.195	5.2
2304.085	5.2
2307.971	5.2
2311.854	3.2
2315.734	3.2
2319.609	4.2
2323.482	4.2
2327.351	1.2
2331.216	5.2
2335.078	6.2
2338.937	3.2
2342.792	-0.8
2346.643	2.2
2350.492	6.2
2354.336	3.2
2358.178	4.2
2362.015	1.2
2365.85	4.2
2369.681	2.2
2373.508	1.2
2377.333	0.2
2381.153	0.2
2384.971	7.2
2388.785	7.2
2392.595	7.2
2396.402	3.2
2400.206	3.2
2404.007	-0.8
2407.804	1.2
2411.597	0.2
2415.388	-1.8
2419.174	1.2
2422.958	5.2
2426.738	1.2
2430.515	6.2
2434.289	2.2
2438.059	1.2
2441.825	-5.8
2445.589	-1.8
2449.349	-1.8
2453.106	3.2
2456.859	4.2
2460.61	5.2
2464.356	9.2
2468.1	5.2
2471.84	0.2
2475.577	2.2
2479.311	-2.8
2483.041	0.2
2486.768	2.2
2490.492	2.2
2494.213	5.2
2497.93	4.2
2501.644	1.2
2505.355	3.2
2509.062	0.2
2512.766	3.2
2516.467	-0.8
2520.165	-0.8
2523.859	0.2
2527.551	4.2
2531.239	2.2
2534.923	3.2
2538.605	-1.8
2542.283	-0.8
2545.958	4.2
2549.63	2.2
2553.299	4.2
2556.964	3.2
2560.626	3.2
2564.285	-1.8
2567.941	2.2
2571.594	-0.8
2575.243	-0.8
2578.89	1.2
2582.533	4.2
2586.173	2.2
2589.809	3.2
2593.443	5.2
2597.073	0.2
2600.701	-1.8
2604.325	-0.8
2607.946	0.2
2611.564	6.2
2615.178	3.2
2618.79	1.2
2622.398	0.2
2626.004	3.2
2629.606	1.2
2633.205	-0.8
2636.801	2.2
2640.394	1.2
2643.983	3.2
2647.57	6.2
2651.153	4.2
2654.734	2.2
2658.311	2.2
2661.885	4.2
2665.456	-0.8
2669.025	-0.8
2672.589	2.2
2676.151	3.2
2679.71	5.2
2683.266	2.2
2686.819	8.2
2690.368	5.2
2693.915	2.2
2697.458	2.2
2700.999	4.2
2704.536	-0.8
2708.071	2.2
2711.602	2.2
2715.13	6.2
2718.656	3.2
2722.178	2.2
2725.697	2.2
2729.214	4.2
2732.727	6.2
2736.237	5.2
2739.744	7.2
2743.249	8.2
2746.75	2.2
2750.248	1.2
2753.743	2.2
2757.236	0.2
2760.725	0.2
2764.211	4.2
2767.695	5.2
2771.175	3.2
2774.652	4.2
2778.127	-0.8
2781.598	4.2
2785.067	-0.8
2788.532	-0.8
2791.995	0.2
2795.455	4.2
2798.911	4.2
2802.365	3.2
2805.816	2.2
2809.264	3.2
2812.709	2.2
2816.151	7.2
2819.59	3.2
2823.026	1.2
2826.46	4.2
2829.89	8.2
2833.318	9.2
2836.742	12.2
2840.164	14.2
2843.583	16.2
2846.999	15.2
2850.412	14.2
2853.822	9.2
2857.229	12.2
2860.634	15.2
2864.035	16.2
2867.434	18.2
2870.83	21.2
2874.223	26.2
2877.613	21.2
2881	24.2
2884.385	23.2
2887.766	28.2
2891.145	29.2
2894.521	29.2
2897.894	29.2
2901.264	27.2
2904.631	28.2
2907.996	28.2
2911.358	26.2
2914.717	16.2
2918.073	16.2
2921.426	17.2
2924.777	14.2
2928.124	20.2
2931.469	18.2
2934.811	17.2
2938.15	15.2
2941.487	11.2
2944.821	11.2
2948.152	10.2
2951.48	12.2
2954.805	12.2
2958.128	15.2
2961.447	11.2
2964.765	14.2
2968.079	18.2
2971.39	12.2
2974.699	10.2
2978.005	5.2
2981.308	8.2
2984.609	3.2
2987.907	6.2
2991.202	2.2
2994.494	0.2
2997.784	5.2
3001.07	6.2
3004.355	4.2
3007.636	3.2
3010.915	2.2
3014.191	4.2
3017.464	2.2
3020.734	4.2
3024.002	-0.8
3027.267	3.2
3030.53	3.2
3033.789	3.2
3037.046	2.2
3040.301	3.2
3043.552	-0.8
3046.801	6.2
3050.048	-0.8
3053.291	2.2
3056.532	1.2
3059.771	4.2
3063.006	-0.8
3066.239	1.2
3069.469	3.2
3072.697	2.2
3075.922	2.2
3079.144	3.2
3082.364	2.2
3085.581	1.2
3088.795	2.2
3092.007	0.2
3095.216	0.2
3098.423	0.2
3101.627	-0.8
3104.828	5.2
3108.026	2.2
3111.222	2.2
3114.416	6.2
3117.607	0.2
3120.795	2.2
3123.98	1.2
3127.163	2.2
3130.344	-1.8
3133.521	3.2
3136.696	3.2
3139.869	3.2
3143.039	6.2
3146.206	6.2
3149.371	4.2
3152.533	5.2
3155.693	1.2
3158.85	2.2
3162.005	0.2
3165.157	3.2
3168.306	2.2
3171.453	4.2
3174.597	5.2
3177.739	3.2
3180.878	1.2
3184.014	3.2
3187.149	-1.8
3190.28	-0.8
3193.409	-1.8
3196.536	1.2
3199.659	5.2
3202.781	6.2
3205.9	8.2
3209.016	8.2
3212.13	3.2
3215.241	2.2
3218.35	3.2
3221.456	-1.8
3224.56	0.2
3227.661	3.2
3230.76	7.2
3233.856	7.2
3236.95	9.2
3240.041	3.2
3243.13	1.2
3246.216	0.2
3249.3	0.2
3252.382	0.2
3255.46	1.2
3258.537	3.2
3261.611	6.2
3264.682	6.2
3267.751	4.2
3270.818	4.2
3273.882	1.2
3276.943	1.2
3280.002	-0.8
3283.059	0.2
3286.113	0.2
3289.165	4.2
3292.214	4.2
3295.261	3.2
3298.306	2.2
3301.348	3.2
3304.387	2.2
3307.425	1.2
3310.459	2.2
3313.492	0.2
3316.521	5.2
3319.549	1.2
3322.574	2.2
3325.597	2.2
3328.617	-0.8
3331.635	2.2
3334.65	0.2
3337.663	2.2
3340.674	3.2
3343.682	1.2
3346.688	2.2
3349.691	2.2
3352.692	0.2
3355.691	-0.8
3358.687	-4.8
3361.681	3.2
3364.673	6.2
3367.662	0.2
3370.649	3.2
3373.633	1.2
3376.615	2.2
3379.595	-1.8
3382.572	1.2
3385.547	1.2
3388.52	0.2
3391.49	5.2
3394.458	4.2
3397.424	-2.8
3400.387	-0.8
3403.348	-1.8
3406.307	-1.8
3409.263	5.2
3412.217	0.2
3415.168	2.2
3418.118	3.2
3421.065	4.2
3424.009	2.2
3426.951	-0.8
3429.891	-3.8
3432.829	-1.8
3435.764	0.2
3438.697	1.2
3441.628	2.2
3444.557	1.2
3447.483	1.2
3450.407	1.2
3453.328	2.2
3456.247	-2.8
3459.164	-2.8
3462.079	2.2
3464.991	2.2
3467.902	3.2
3470.809	2.2
3473.715	4.2
3476.618	1.2
3479.519	-4.8
3482.418	-1.8
3485.315	-1.8
3488.209	-1.8
3491.101	2.2
3493.99	-1.8
3496.878	2.2
3499.763	1.2
3502.646	0.2
3505.527	-0.8
3508.405	-0.8
3511.281	0.2
3514.155	-3.8
3517.027	0.2
3519.897	-0.8
3522.764	-0.8
3525.629	0.2
3528.492	-0.8
3531.352	-0.8
3534.211	-2.8
3537.067	-7.8
3539.921	-3.8
3542.773	-2.8
3545.622	2.2
3548.469	1.2
3551.315	4.2
3554.157	2.2
3556.998	1.2
3559.837	-3.8
3562.673	-3.8
3565.507	-3.8
3568.339	-3.8
3571.169	-2.8
3573.996	2.2
3576.822	2.2
3579.645	-0.8
3582.466	-1.8
3585.285	2.2
3588.101	-3.8
3590.916	-1.8
3593.728	-0.8
3596.538	-2.8
3599.346	-1.8
3602.152	0.2
3604.956	-1.8
3607.757	0.2
3610.556	-1.8
3613.354	1.2
3616.149	-5.8
3618.942	-4.8
3621.732	-1.8
3624.521	0.2
3627.307	-0.8
3630.092	-0.8
3632.874	0.2
3635.654	0.2
3638.432	-2.8
3641.208	-3.8
3643.982	-0.8
3646.753	-1.8
3649.523	-6.8
3652.29	-1.8
3655.055	-4.8
3657.818	-2.8
3660.579	1.2
3663.338	0.2
3666.095	-0.8
3668.849	1.2
3671.602	-0.8
3674.352	-0.8
3677.101	-5.8
3679.847	-4.8
3682.591	1.2
3685.333	0.2
3688.073	0.2
3690.811	0.2
3693.547	1.2
3696.281	-5.8
3699.013	-2.8
3701.742	-5.8
3704.47	-2.8
3707.195	-1.8
3709.919	-3.8
3712.64	-2.8
3715.359	0.2
3718.076	-1.8
3720.792	-0.8
3723.505	-0.8
3726.216	-6.8
3728.925	-2.8
3731.632	-2.8
3734.336	-2.8
3737.039	3.2
3739.74	0.2
3742.439	-0.8
3745.136	-2.8
3747.83	-2.8
3750.523	-2.8
3753.213	-4.8
3755.902	0.2
3758.589	-0.8
3761.273	0.2
3763.956	2.2
3766.636	-3.8
3769.315	-1.8
3771.991	-2.8
3774.665	-1.8
3777.338	0.2
3780.008	-0.8
3782.677	-4.8
3785.343	-2.8
3788.007	-0.8
3790.67	0.2
3793.33	-0.8
3795.989	2.2
3798.645	-3.8
3801.299	-3.8
3803.952	-1.8
3806.602	-1.8
3809.251	0.2
3811.897	-3.8
3814.542	-2.8
3817.184	-3.8
3819.825	-4.8
3822.463	-4.8
3825.1	-3.8
3827.735	-3.8
3830.367	-2.8
3832.998	-2.8
3835.627	-1.8
3838.253	-1.8
3840.878	-4.8
3843.501	-0.8
3846.122	-2.8
3848.741	-0.8
3851.358	0.2
3853.973	0.2
3856.586	-5.8
3859.197	-2.8
3861.806	-4.8
3864.414	-5.8
3867.019	-0.8
3869.622	-5.8
3872.224	-1.8
3874.823	0.2
3877.421	4.2
3880.016	-0.8
3882.61	-0.8
3885.202	1.2
3887.792	-1.8
3890.38	-5.8
3892.966	-3.8
3895.55	1.2
3898.132	-0.8
3900.713	2.2
3903.291	-0.8
3905.868	1.2
3908.442	-1.8
3911.015	-4.8
3913.586	-0.8
3916.155	-1.8
3918.722	-2.8
3921.287	-2.8
3923.85	-2.8
3926.411	1.2
3928.971	0.2
3931.528	0.2
3934.084	-2.8
3936.638	-2.8
3939.19	-4.8
3941.74	0.2
3944.288	-4.8
3946.834	-0.8
3949.378	-0.8
3951.921	0.2
3954.462	-0.8
3957	-1.8
3959.537	0.2
3962.072	1.2
3964.606	-0.8
3967.137	-1.8
3969.667	-2.8
3972.194	-6.8
3974.72	-4.8
3977.244	-3.8
3979.766	0.2
3982.286	-4.8
3984.805	2.2
3987.321	0.2
3989.836	-1.8
3992.349	0.2
3994.86	-2.8
3997.369	-7.8
3999.877	-6.8
4002.382	-3.8
4004.886	-4.8
4007.388	-1.8
4009.888	-3.8
4012.386	1.2
4014.883	-0.8
4017.377	3.2
4019.87	-2.8
4022.361	-2.8
4024.85	-4.8
4027.338	-5.8
4029.823	-0.8
4032.307	0.2
4034.789	0.2
4037.269	-0.8
4039.747	-0.8
4042.224	-0.8
4044.699	-5.8
4047.172	-4.8
4049.643	-5.8
4052.112	-2.8
4054.58	-5.8
4057.046	0.2
4059.51	0.2
4061.972	1.2
4064.432	-2.8
4066.891	-0.8
4069.348	-0.8
4071.803	-6.8
4074.256	-6.8
4076.708	-1.8
4079.158	1.2
4081.606	-0.8
4084.052	0.2
4086.497	1.2
4088.939	0.2
4091.38	1.2
4093.819	-4.8
4096.257	-5.8
4098.693	-2.8
4101.127	-1.8
4103.559	2.2
4105.989	6.2
4108.418	3.2
4110.845	1.2
4113.27	1.2
4115.694	1.2
4118.115	2.2
4120.535	-6.8
4122.954	-1.8
4125.37	-6.8
4127.785	-2.8
4130.198	-0.8
4132.609	2.2
4135.019	-0.8
4137.427	-2.8
4139.833	-6.8
4142.237	-7.8
