Data from 0.25_n=4_RamanShift_01.txt Node
Date: Mon Mar 19 12:13:08 IST 2018
User: aro
Spectrometer: QEPB0276
Trigger mode: 0
Integration Time (sec): 5.000000E0
Scans to average: 1
Electric dark correction enabled: true
Nonlinearity correction enabled: false
Boxcar width: 0
XAxis mode: Raman Shifts
Number of Pixels in Spectrum: 1044
>>>>>Begin Spectral Data<<<<<
160.701	-2.2
166.742	0.8
172.777	1.8
178.805	11.8
184.826	20.8
190.841	39.8
196.849	66.8
202.85	88.8
208.845	81.8
214.833	91.8
220.815	89.8
226.789	87.8
232.758	91.8
238.719	93.8
244.674	95.8
250.623	92.8
256.565	92.8
262.5	84.8
268.429	86.8
274.351	97.8
280.267	94.8
286.176	93.8
292.079	92.8
297.975	99.8
303.865	92.8
309.748	96.8
315.625	98.8
321.495	92.8
327.359	99.8
333.217	98.8
339.068	105.8
344.912	108.8
350.751	100.8
356.583	99.8
362.408	99.8
368.227	103.8
374.04	94.8
379.847	108.8
385.647	113.8
391.44	117.8
397.228	119.8
403.009	123.8
408.784	118.8
414.553	128.8
420.315	135.8
426.071	143.8
431.821	125.8
437.565	112.8
443.302	106.8
449.033	111.8
454.758	108.8
460.477	104.8
466.189	101.8
471.896	99.8
477.596	88.8
483.29	94.8
488.978	90.8
494.66	95.8
500.335	94.8
506.005	84.8
511.668	76.8
517.325	74.8
522.977	66.8
528.622	66.8
534.261	62.8
539.894	58.8
545.521	56.8
551.141	59.8
556.756	52.8
562.365	50.8
567.968	53.8
573.565	52.8
579.155	50.8
584.74	48.8
590.319	48.8
595.892	51.8
601.459	49.8
607.02	49.8
612.575	50.8
618.124	49.8
623.667	48.8
629.204	45.8
634.735	46.8
640.261	50.8
645.781	46.8
651.294	54.8
656.802	56.8
662.304	43.8
667.8	45.8
673.29	41.8
678.775	46.8
684.254	45.8
689.726	38.8
695.193	39.8
700.655	41.8
706.11	42.8
711.56	37.8
717.004	36.8
722.442	36.8
727.874	40.8
733.301	37.8
738.722	40.8
744.137	42.8
749.547	40.8
754.951	43.8
760.349	41.8
765.741	41.8
771.128	43.8
776.509	40.8
781.885	43.8
787.254	46.8
792.618	46.8
797.977	49.8
803.33	58.8
808.677	63.8
814.019	68.8
819.355	68.8
824.686	54.8
830.011	51.8
835.33	50.8
840.644	56.8
845.952	61.8
851.255	62.8
856.552	54.8
861.844	45.8
867.13	41.8
872.41	39.8
877.686	36.8
882.955	26.8
888.219	34.8
893.478	31.8
898.731	39.8
903.979	35.8
909.221	42.8
914.458	37.8
919.69	36.8
924.916	30.8
930.136	33.8
935.351	32.8
940.561	32.8
945.766	37.8
950.965	36.8
956.158	34.8
961.347	38.8
966.529	38.8
971.707	35.8
976.879	40.8
982.046	38.8
987.208	30.8
992.364	33.8
997.515	38.8
1002.66	38.8
1007.801	41.8
1012.936	35.8
1018.066	32.8
1023.19	31.8
1028.309	30.8
1033.423	32.8
1038.532	40.8
1043.636	41.8
1048.734	44.8
1053.827	36.8
1058.915	31.8
1063.998	31.8
1069.075	28.8
1074.147	28.8
1079.214	27.8
1084.276	27.8
1089.333	32.8
1094.385	28.8
1099.431	34.8
1104.472	33.8
1109.509	30.8
1114.54	29.8
1119.565	29.8
1124.586	31.8
1129.602	28.8
1134.613	27.8
1139.618	26.8
1144.619	35.8
1149.614	40.8
1154.604	50.8
1159.589	54.8
1164.57	48.8
1169.545	44.8
1174.515	43.8
1179.48	38.8
1184.44	36.8
1189.395	29.8
1194.345	31.8
1199.29	29.8
1204.23	28.8
1209.165	28.8
1214.095	29.8
1219.021	31.8
1223.941	42.8
1228.856	31.8
1233.766	30.8
1238.672	30.8
1243.572	29.8
1248.467	31.8
1253.358	27.8
1258.244	27.8
1263.124	26.8
1268	25.8
1272.871	27.8
1277.737	25.8
1282.599	24.8
1287.455	23.8
1292.306	28.8
1297.153	30.8
1301.995	29.8
1306.832	33.8
1311.664	29.8
1316.491	31.8
1321.314	35.8
1326.132	37.8
1330.945	44.8
1335.753	52.8
1340.556	46.8
1345.354	32.8
1350.148	34.8
1354.937	27.8
1359.722	34.8
1364.501	32.8
1369.276	37.8
1374.046	30.8
1378.811	23.8
1383.572	20.8
1388.327	22.8
1393.079	27.8
1397.825	25.8
1402.567	22.8
1407.304	21.8
1412.036	20.8
1416.764	21.8
1421.487	24.8
1426.205	19.8
1430.919	22.8
1435.628	28.8
1440.333	34.8
1445.032	40.8
1449.727	38.8
1454.418	50.8
1459.104	57.8
1463.785	56.8
1468.462	47.8
1473.134	43.8
1477.802	29.8
1482.465	27.8
1487.123	23.8
1491.777	24.8
1496.426	19.8
1501.071	21.8
1505.711	22.8
1510.347	18.8
1514.978	16.8
1519.604	19.8
1524.226	14.8
1528.844	21.8
1533.457	19.8
1538.065	23.8
1542.669	22.8
1547.269	17.8
1551.864	16.8
1556.454	17.8
1561.041	16.8
1565.622	15.8
1570.199	14.8
1574.772	18.8
1579.34	19.8
1583.904	21.8
1588.464	18.8
1593.019	16.8
1597.569	14.8
1602.115	16.8
1606.657	9.8
1611.195	20.8
1615.728	16.8
1620.256	23.8
1624.78	20.8
1629.3	19.8
1633.816	18.8
1638.327	19.8
1642.834	12.8
1647.336	12.8
1651.834	12.8
1656.328	16.8
1660.817	17.8
1665.302	21.8
1669.783	16.8
1674.259	18.8
1678.732	16.8
1683.199	15.8
1687.663	14.8
1692.122	11.8
1696.577	15.8
1701.028	20.8
1705.474	17.8
1709.917	16.8
1714.355	12.8
1718.788	12.8
1723.218	11.8
1727.643	4.8
1732.064	8.8
1736.481	10.8
1740.893	10.8
1745.301	14.8
1749.705	15.8
1754.105	15.8
1758.501	10.8
1762.893	8.8
1767.28	8.8
1771.663	8.8
1776.042	7.8
1780.417	8.8
1784.787	15.8
1789.154	13.8
1793.516	15.8
1797.874	11.8
1802.228	12.8
1806.578	6.8
1810.924	8.8
1815.266	9.8
1819.603	8.8
1823.937	15.8
1828.266	7.8
1832.591	13.8
1836.913	8.8
1841.23	10.8
1845.543	6.8
1849.852	7.8
1854.156	6.8
1858.457	7.8
1862.754	11.8
1867.047	10.8
1871.335	12.8
1875.62	9.8
1879.9	10.8
1884.177	12.8
1888.449	6.8
1892.718	9.8
1896.982	9.8
1901.243	9.8
1905.499	10.8
1909.752	7.8
1914	11.8
1918.245	8.8
1922.485	5.8
1926.722	10.8
1930.954	7.8
1935.183	8.8
1939.408	9.8
1943.628	11.8
1947.845	10.8
1952.058	12.8
1956.267	7.8
1960.472	5.8
1964.673	6.8
1968.87	7.8
1973.063	7.8
1977.252	5.8
1981.438	4.8
1985.619	6.8
1989.797	7.8
1993.971	5.8
1998.14	5.8
2002.306	8.8
2006.469	8.8
2010.627	10.8
2014.781	9.8
2018.932	8.8
2023.078	3.8
2027.221	7.8
2031.36	0.8
2035.495	7.8
2039.627	6.8
2043.754	5.8
2047.878	11.8
2051.998	8.8
2056.114	5.8
2060.226	9.8
2064.334	4.8
2068.439	1.8
2072.54	2.8
2076.637	7.8
2080.73	6.8
2084.82	8.8
2088.906	10.8
2092.988	5.8
2097.066	4.8
2101.14	5.8
2105.211	3.8
2109.278	5.8
2113.342	1.8
2117.401	6.8
2121.457	6.8
2125.509	11.8
2129.558	5.8
2133.602	8.8
2137.643	1.8
2141.681	2.8
2145.714	1.8
2149.744	5.8
2153.77	5.8
2157.793	8.8
2161.812	6.8
2165.827	9.8
2169.838	2.8
2173.846	3.8
2177.851	2.8
2181.851	3.8
2185.848	4.8
2189.841	3.8
2193.831	1.8
2197.817	5.8
2201.799	5.8
2205.778	6.8
2209.753	6.8
2213.725	0.8
2217.693	3.8
2221.657	1.8
2225.618	5.8
2229.575	7.8
2233.529	4.8
2237.479	2.8
2241.425	-1.2
2245.368	2.8
2249.307	1.8
2253.243	3.8
2257.175	4.8
2261.104	10.8
2265.029	5.8
2268.95	3.8
2272.868	0.8
2276.783	-0.2
2280.694	1.8
2284.601	0.8
2288.505	0.8
2292.405	2.8
2296.302	4.8
2300.195	6.8
2304.085	1.8
2307.971	0.8
2311.854	-3.2
2315.734	-0.2
2319.609	-0.2
2323.482	0.8
2327.351	0.8
2331.216	5.8
2335.078	6.8
2338.937	5.8
2342.792	-1.2
2346.643	-0.2
2350.492	1.8
2354.336	1.8
2358.178	0.8
2362.015	0.8
2365.85	3.8
2369.681	1.8
2373.508	2.8
2377.333	-0.2
2381.153	0.8
2384.971	0.8
2388.785	-2.2
2392.595	3.8
2396.402	0.8
2400.206	2.8
2404.007	2.8
2407.804	1.8
2411.597	3.8
2415.388	-2.2
2419.174	-0.2
2422.958	1.8
2426.738	-1.2
2430.515	3.8
2434.289	-1.2
2438.059	1.8
2441.825	-4.2
2445.589	0.8
2449.349	1.8
2453.106	4.8
2456.859	0.8
2460.61	3.8
2464.356	3.8
2468.1	-0.2
2471.84	-2.2
2475.577	-1.2
2479.311	-4.2
2483.041	3.8
2486.768	2.8
2490.492	0.8
2494.213	3.8
2497.93	-1.2
2501.644	1.8
2505.355	-1.2
2509.062	-2.2
2512.766	-2.2
2516.467	-3.2
2520.165	1.8
2523.859	-0.2
2527.551	2.8
2531.239	4.8
2534.923	0.8
2538.605	-1.2
2542.283	-4.2
2545.958	0.8
2549.63	-2.2
2553.299	-0.2
2556.964	1.8
2560.626	2.8
2564.285	-2.2
2567.941	-0.2
2571.594	-2.2
2575.243	-4.2
2578.89	0.8
2582.533	-0.2
2586.173	0.8
2589.809	0.8
2593.443	1.8
2597.073	0.8
2600.701	-0.2
2604.325	0.8
2607.946	0.8
2611.564	2.8
2615.178	2.8
2618.79	1.8
2622.398	0.8
2626.004	-0.2
2629.606	0.8
2633.205	-0.2
2636.801	2.8
2640.394	0.8
2643.983	4.8
2647.57	1.8
2651.153	1.8
2654.734	1.8
2658.311	2.8
2661.885	-4.2
2665.456	-1.2
2669.025	-0.2
2672.589	2.8
2676.151	1.8
2679.71	5.8
2683.266	-3.2
2686.819	5.8
2690.368	1.8
2693.915	-1.2
2697.458	-4.2
2700.999	2.8
2704.536	2.8
2708.071	3.8
2711.602	4.8
2715.13	6.8
2718.656	3.8
2722.178	0.8
2725.697	-2.2
2729.214	-1.2
2732.727	-2.2
2736.237	1.8
2739.744	1.8
2743.249	7.8
2746.75	3.8
2750.248	3.8
2753.743	1.8
2757.236	-0.2
2760.725	-3.2
2764.211	-1.2
2767.695	-1.2
2771.175	0.8
2774.652	3.8
2778.127	-0.2
2781.598	2.8
2785.067	-1.2
2788.532	-2.2
2791.995	-0.2
2795.455	-1.2
2798.911	-2.2
2802.365	-1.2
2805.816	-1.2
2809.264	0.8
2812.709	1.8
2816.151	3.8
2819.59	1.8
2823.026	-0.2
2826.46	-1.2
2829.89	6.8
2833.318	4.8
2836.742	6.8
2840.164	11.8
2843.583	12.8
2846.999	11.8
2850.412	12.8
2853.822	10.8
2857.229	11.8
2860.634	9.8
2864.035	10.8
2867.434	16.8
2870.83	17.8
2874.223	21.8
2877.613	23.8
2881	20.8
2884.385	25.8
2887.766	28.8
2891.145	30.8
2894.521	25.8
2897.894	27.8
2901.264	21.8
2904.631	23.8
2907.996	27.8
2911.358	22.8
2914.717	21.8
2918.073	15.8
2921.426	19.8
2924.777	14.8
2928.124	12.8
2931.469	14.8
2934.811	11.8
2938.15	10.8
2941.487	8.8
2944.821	11.8
2948.152	9.8
2951.48	8.8
2954.805	11.8
2958.128	16.8
2961.447	13.8
2964.765	9.8
2968.079	16.8
2971.39	7.8
2974.699	7.8
2978.005	2.8
2981.308	7.8
2984.609	2.8
2987.907	5.8
2991.202	2.8
2994.494	3.8
2997.784	4.8
3001.07	1.8
3004.355	-0.2
3007.636	5.8
3010.915	3.8
3014.191	3.8
3017.464	0.8
3020.734	4.8
3024.002	0.8
3027.267	1.8
3030.53	-3.2
3033.789	1.8
3037.046	-5.2
3040.301	-1.2
3043.552	-1.2
3046.801	4.8
3050.048	1.8
3053.291	1.8
3056.532	2.8
3059.771	3.8
3063.006	-1.2
3066.239	-2.2
3069.469	1.8
3072.697	-0.2
3075.922	0.8
3079.144	4.8
3082.364	1.8
3085.581	0.8
3088.795	3.8
3092.007	-1.2
3095.216	-3.2
3098.423	-1.2
3101.627	-2.2
3104.828	1.8
3108.026	-0.2
3111.222	0.8
3114.416	2.8
3117.607	3.8
3120.795	0.8
3123.98	-0.2
3127.163	1.8
3130.344	-2.2
3133.521	0.8
3136.696	3.8
3139.869	5.8
3143.039	7.8
3146.206	3.8
3149.371	2.8
3152.533	1.8
3155.693	-1.2
3158.85	-1.2
3162.005	1.8
3165.157	0.8
3168.306	3.8
3171.453	0.8
3174.597	3.8
3177.739	2.8
3180.878	-0.2
3184.014	0.8
3187.149	-4.2
3190.28	-4.2
3193.409	-3.2
3196.536	1.8
3199.659	5.8
3202.781	3.8
3205.9	4.8
3209.016	1.8
3212.13	1.8
3215.241	-1.2
3218.35	1.8
3221.456	-2.2
3224.56	2.8
3227.661	2.8
3230.76	7.8
3233.856	2.8
3236.95	6.8
3240.041	-1.2
3243.13	-1.2
3246.216	-1.2
3249.3	0.8
3252.382	2.8
3255.46	4.8
3258.537	1.8
3261.611	8.8
3264.682	2.8
3267.751	-0.2
3270.818	-1.2
3273.882	-1.2
3276.943	-3.2
3280.002	0.8
3283.059	-1.2
3286.113	3.8
3289.165	-0.2
3292.214	3.8
3295.261	0.8
3298.306	0.8
3301.348	-3.2
3304.387	-3.2
3307.425	-0.2
3310.459	3.8
3313.492	-1.2
3316.521	4.8
3319.549	-0.2
3322.574	0.8
3325.597	-2.2
3328.617	-3.2
3331.635	-1.2
3334.65	-3.2
3337.663	-0.2
3340.674	0.8
3343.682	6.8
3346.688	0.8
3349.691	1.8
3352.692	0.8
3355.691	-1.2
3358.687	-4.2
3361.681	-2.2
3364.673	-0.2
3367.662	-3.2
3370.649	4.8
3373.633	2.8
3376.615	3.8
3379.595	-2.2
3382.572	1.8
3385.547	-2.2
3388.52	-3.2
3391.49	0.8
3394.458	0.8
3397.424	-1.2
3400.387	0.8
3403.348	-1.2
3406.307	-1.2
3409.263	-0.2
3412.217	0.8
3415.168	-1.2
3418.118	-2.2
3421.065	2.8
3424.009	-2.2
3426.951	0.8
3429.891	-1.2
3432.829	1.8
3435.764	3.8
3438.697	-4.2
3441.628	-2.2
3444.557	0.8
3447.483	0.8
3450.407	-0.2
3453.328	1.8
3456.247	-6.2
3459.164	-0.2
3462.079	-1.2
3464.991	0.8
3467.902	-1.2
3470.809	1.8
3473.715	-2.2
3476.618	-1.2
3479.519	-5.2
3482.418	-2.2
3485.315	-5.2
3488.209	-1.2
3491.101	-2.2
3493.99	-3.2
3496.878	0.8
3499.763	0.8
3502.646	0.8
3505.527	-1.2
3508.405	-2.2
3511.281	-1.2
3514.155	-8.2
3517.027	-0.2
3519.897	-0.2
3522.764	-2.2
3525.629	-0.2
3528.492	0.8
3531.352	-4.2
3534.211	-2.2
3537.067	-8.2
3539.921	-7.2
3542.773	-7.2
3545.622	1.8
3548.469	-3.2
3551.315	-1.2
3554.157	-1.2
3556.998	-0.2
3559.837	-6.2
3562.673	-3.2
3565.507	-5.2
3568.339	-1.2
3571.169	-0.2
3573.996	-0.2
3576.822	-0.2
3579.645	-4.2
3582.466	-3.2
3585.285	-1.2
3588.101	-1.2
3590.916	0.8
3593.728	-2.2
3596.538	-1.2
3599.346	-6.2
3602.152	-3.2
3604.956	-6.2
3607.757	-4.2
3610.556	-6.2
3613.354	-1.2
3616.149	-4.2
3618.942	-4.2
3621.732	0.8
3624.521	0.8
3627.307	-5.2
3630.092	-4.2
3632.874	-7.2
3635.654	-3.2
3638.432	-7.2
3641.208	-1.2
3643.982	-0.2
3646.753	-0.2
3649.523	-7.2
3652.29	-3.2
3655.055	-9.2
3657.818	-7.2
3660.579	-1.2
3663.338	-1.2
3666.095	-1.2
3668.849	-0.2
3671.602	-1.2
3674.352	0.8
3677.101	-7.2
3679.847	-4.2
3682.591	-5.2
3685.333	-4.2
3688.073	-3.2
3690.811	-0.2
3693.547	0.8
3696.281	-2.2
3699.013	-3.2
3701.742	-2.2
3704.47	-4.2
3707.195	-5.2
3709.919	-6.2
3712.64	-7.2
3715.359	-2.2
3718.076	-2.2
3720.792	-1.2
3723.505	-1.2
3726.216	-6.2
3728.925	-1.2
3731.632	-6.2
3734.336	-5.2
3737.039	-1.2
3739.74	-3.2
3742.439	-6.2
3745.136	-4.2
3747.83	-6.2
3750.523	-4.2
3753.213	-3.2
3755.902	1.8
3758.589	-2.2
3761.273	-0.2
3763.956	-1.2
3766.636	-4.2
3769.315	-8.2
3771.991	-7.2
3774.665	-6.2
3777.338	0.8
3780.008	-1.2
3782.677	-3.2
3785.343	-3.2
3788.007	0.8
3790.67	0.8
3793.33	-6.2
3795.989	-5.2
3798.645	-5.2
3801.299	-2.2
3803.952	-2.2
3806.602	-0.2
3809.251	1.8
3811.897	-3.2
3814.542	-0.2
3817.184	-6.2
3819.825	-5.2
3822.463	-6.2
3825.1	-5.2
3827.735	-7.2
3830.367	-2.2
3832.998	-2.2
3835.627	1.8
3838.253	0.8
3840.878	-4.2
3843.501	-4.2
3846.122	-6.2
3848.741	-5.2
3851.358	-3.2
3853.973	-3.2
3856.586	-4.2
3859.197	-3.2
3861.806	-3.2
3864.414	-6.2
3867.019	-4.2
3869.622	-4.2
3872.224	-3.2
3874.823	-5.2
3877.421	-2.2
3880.016	-4.2
3882.61	-0.2
3885.202	0.8
3887.792	2.8
3890.38	-1.2
3892.966	-2.2
3895.55	-2.2
3898.132	-0.2
3900.713	-2.2
3903.291	-4.2
3905.868	-6.2
3908.442	-3.2
3911.015	-5.2
3913.586	-2.2
3916.155	-2.2
3918.722	-0.2
3921.287	-2.2
3923.85	-2.2
3926.411	-3.2
3928.971	-7.2
3931.528	-4.2
3934.084	-7.2
3936.638	-2.2
3939.19	-5.2
3941.74	1.8
3944.288	-3.2
3946.834	0.8
3949.378	-2.2
3951.921	-2.2
3954.462	-5.2
3957	-10.2
3959.537	0.8
3962.072	-0.2
3964.606	-1.2
3967.137	-1.2
3969.667	2.8
3972.194	-2.2
3974.72	-4.2
3977.244	-6.2
3979.766	-5.2
3982.286	-5.2
3984.805	-5.2
3987.321	-4.2
3989.836	-0.2
3992.349	0.8
3994.86	-0.2
3997.369	-5.2
3999.877	-5.2
4002.382	-8.2
4004.886	-5.2
4007.388	-5.2
4009.888	-6.2
4012.386	-3.2
4014.883	-1.2
4017.377	-0.2
4019.87	-0.2
4022.361	-1.2
4024.85	-4.2
4027.338	-7.2
4029.823	-5.2
4032.307	-4.2
4034.789	-4.2
4037.269	-2.2
4039.747	0.8
4042.224	-0.2
4044.699	-1.2
4047.172	-3.2
4049.643	-5.2
4052.112	-4.2
4054.58	-7.2
4057.046	-3.2
4059.51	-4.2
4061.972	-2.2
4064.432	-0.2
4066.891	-0.2
4069.348	-0.2
4071.803	-5.2
4074.256	-7.2
4076.708	-5.2
4079.158	-1.2
4081.606	-5.2
4084.052	-0.2
4086.497	-0.2
4088.939	2.8
4091.38	-0.2
4093.819	-3.2
4096.257	-5.2
4098.693	-4.2
4101.127	-2.2
4103.559	1.8
4105.989	3.8
4108.418	2.8
4110.845	-0.2
4113.27	-0.2
4115.694	-1.2
4118.115	-0.2
4120.535	-6.2
4122.954	-4.2
4125.37	-8.2
4127.785	-5.2
4130.198	-1.2
4132.609	-2.2
4135.019	-2.2
4137.427	-0.2
4139.833	-3.2
4142.237	-6.2
