Data from 0.5_n=4_RamanShift_02.txt Node
Date: Mon Mar 19 12:22:13 IST 2018
User: aro
Spectrometer: QEPB0276
Trigger mode: 0
Integration Time (sec): 5.000000E0
Scans to average: 1
Electric dark correction enabled: true
Nonlinearity correction enabled: false
Boxcar width: 0
XAxis mode: Raman Shifts
Number of Pixels in Spectrum: 1044
>>>>>Begin Spectral Data<<<<<
160.701	-2.2
166.742	-1.2
172.777	3.8
178.805	9.8
184.826	17.8
190.841	36.8
196.849	56.8
202.85	70.8
208.845	70.8
214.833	74.8
220.815	76.8
226.789	78.8
232.758	78.8
238.719	79.8
244.674	78.8
250.623	82.8
256.565	79.8
262.5	79.8
268.429	79.8
274.351	78.8
280.267	81.8
286.176	82.8
292.079	82.8
297.975	83.8
303.865	79.8
309.748	80.8
315.625	82.8
321.495	80.8
327.359	85.8
333.217	89.8
339.068	89.8
344.912	89.8
350.751	87.8
356.583	83.8
362.408	85.8
368.227	86.8
374.04	87.8
379.847	90.8
385.647	99.8
391.44	104.8
397.228	96.8
403.009	102.8
408.784	99.8
414.553	113.8
420.315	120.8
426.071	128.8
431.821	118.8
437.565	97.8
443.302	96.8
449.033	99.8
454.758	95.8
460.477	92.8
466.189	92.8
471.896	83.8
477.596	81.8
483.29	82.8
488.978	78.8
494.66	80.8
500.335	81.8
506.005	69.8
511.668	67.8
517.325	58.8
522.977	51.8
528.622	52.8
534.261	48.8
539.894	44.8
545.521	45.8
551.141	41.8
556.756	43.8
562.365	40.8
567.968	44.8
573.565	42.8
579.155	36.8
584.74	37.8
590.319	37.8
595.892	39.8
601.459	36.8
607.02	37.8
612.575	38.8
618.124	38.8
623.667	40.8
629.204	32.8
634.735	35.8
640.261	36.8
645.781	37.8
651.294	38.8
656.802	42.8
662.304	33.8
667.8	34.8
673.29	34.8
678.775	34.8
684.254	29.8
689.726	28.8
695.193	31.8
700.655	30.8
706.11	28.8
711.56	31.8
717.004	32.8
722.442	30.8
727.874	31.8
733.301	27.8
738.722	30.8
744.137	29.8
749.547	28.8
754.951	32.8
760.349	30.8
765.741	31.8
771.128	31.8
776.509	33.8
781.885	34.8
787.254	36.8
792.618	37.8
797.977	35.8
803.33	38.8
808.677	43.8
814.019	41.8
819.355	50.8
824.686	38.8
830.011	34.8
835.33	37.8
840.644	35.8
845.952	42.8
851.255	37.8
856.552	38.8
861.844	29.8
867.13	25.8
872.41	29.8
877.686	27.8
882.955	24.8
888.219	23.8
893.478	25.8
898.731	24.8
903.979	22.8
909.221	28.8
914.458	24.8
919.69	23.8
924.916	22.8
930.136	22.8
935.351	25.8
940.561	21.8
945.766	24.8
950.965	22.8
956.158	25.8
961.347	24.8
966.529	25.8
971.707	20.8
976.879	24.8
982.046	27.8
987.208	25.8
992.364	24.8
997.515	25.8
1002.66	28.8
1007.801	31.8
1012.936	24.8
1018.066	22.8
1023.19	19.8
1028.309	21.8
1033.423	25.8
1038.532	31.8
1043.636	28.8
1048.734	30.8
1053.827	24.8
1058.915	23.8
1063.998	22.8
1069.075	20.8
1074.147	20.8
1079.214	21.8
1084.276	24.8
1089.333	25.8
1094.385	24.8
1099.431	26.8
1104.472	24.8
1109.509	22.8
1114.54	16.8
1119.565	17.8
1124.586	19.8
1129.602	18.8
1134.613	18.8
1139.618	24.8
1144.619	28.8
1149.614	28.8
1154.604	26.8
1159.589	30.8
1164.57	24.8
1169.545	25.8
1174.515	25.8
1179.48	22.8
1184.44	25.8
1189.395	21.8
1194.345	23.8
1199.29	21.8
1204.23	20.8
1209.165	18.8
1214.095	14.8
1219.021	24.8
1223.941	25.8
1228.856	26.8
1233.766	22.8
1238.672	22.8
1243.572	20.8
1248.467	20.8
1253.358	19.8
1258.244	20.8
1263.124	16.8
1268	12.8
1272.871	21.8
1277.737	20.8
1282.599	24.8
1287.455	18.8
1292.306	21.8
1297.153	16.8
1301.995	17.8
1306.832	15.8
1311.664	17.8
1316.491	19.8
1321.314	24.8
1326.132	26.8
1330.945	26.8
1335.753	29.8
1340.556	23.8
1345.354	19.8
1350.148	19.8
1354.937	16.8
1359.722	20.8
1364.501	20.8
1369.276	20.8
1374.046	24.8
1378.811	17.8
1383.572	11.8
1388.327	13.8
1393.079	14.8
1397.825	11.8
1402.567	14.8
1407.304	17.8
1412.036	17.8
1416.764	15.8
1421.487	16.8
1426.205	14.8
1430.919	14.8
1435.628	19.8
1440.333	21.8
1445.032	24.8
1449.727	21.8
1454.418	29.8
1459.104	29.8
1463.785	32.8
1468.462	27.8
1473.134	23.8
1477.802	19.8
1482.465	14.8
1487.123	16.8
1491.777	14.8
1496.426	17.8
1501.071	14.8
1505.711	14.8
1510.347	10.8
1514.978	13.8
1519.604	15.8
1524.226	9.8
1528.844	12.8
1533.457	13.8
1538.065	15.8
1542.669	16.8
1547.269	13.8
1551.864	13.8
1556.454	12.8
1561.041	13.8
1565.622	12.8
1570.199	13.8
1574.772	8.8
1579.34	11.8
1583.904	15.8
1588.464	17.8
1593.019	14.8
1597.569	14.8
1602.115	10.8
1606.657	8.8
1611.195	11.8
1615.728	10.8
1620.256	11.8
1624.78	14.8
1629.3	13.8
1633.816	15.8
1638.327	14.8
1642.834	11.8
1647.336	8.8
1651.834	7.8
1656.328	7.8
1660.817	10.8
1665.302	14.8
1669.783	11.8
1674.259	15.8
1678.732	12.8
1683.199	10.8
1687.663	14.8
1692.122	7.8
1696.577	7.8
1701.028	10.8
1705.474	8.8
1709.917	12.8
1714.355	9.8
1718.788	12.8
1723.218	12.8
1727.643	8.8
1732.064	11.8
1736.481	9.8
1740.893	7.8
1745.301	13.8
1749.705	12.8
1754.105	11.8
1758.501	8.8
1762.893	6.8
1767.28	10.8
1771.663	10.8
1776.042	4.8
1780.417	6.8
1784.787	9.8
1789.154	5.8
1793.516	11.8
1797.874	9.8
1802.228	9.8
1806.578	5.8
1810.924	7.8
1815.266	7.8
1819.603	6.8
1823.937	8.8
1828.266	2.8
1832.591	5.8
1836.913	5.8
1841.23	3.8
1845.543	7.8
1849.852	6.8
1854.156	2.8
1858.457	6.8
1862.754	10.8
1867.047	5.8
1871.335	6.8
1875.62	5.8
1879.9	7.8
1884.177	7.8
1888.449	4.8
1892.718	7.8
1896.982	6.8
1901.243	8.8
1905.499	3.8
1909.752	5.8
1914	4.8
1918.245	3.8
1922.485	4.8
1926.722	6.8
1930.954	5.8
1935.183	8.8
1939.408	8.8
1943.628	7.8
1947.845	2.8
1952.058	9.8
1956.267	4.8
1960.472	3.8
1964.673	2.8
1968.87	2.8
1973.063	10.8
1977.252	8.8
1981.438	7.8
1985.619	8.8
1989.797	4.8
1993.971	2.8
1998.14	3.8
2002.306	2.8
2006.469	7.8
2010.627	7.8
2014.781	9.8
2018.932	9.8
2023.078	4.8
2027.221	5.8
2031.36	2.8
2035.495	4.8
2039.627	2.8
2043.754	1.8
2047.878	7.8
2051.998	5.8
2056.114	11.8
2060.226	10.8
2064.334	4.8
2068.439	3.8
2072.54	0.8
2076.637	3.8
2080.73	0.8
2084.82	3.8
2088.906	9.8
2092.988	6.8
2097.066	3.8
2101.14	5.8
2105.211	9.8
2109.278	5.8
2113.342	5.8
2117.401	5.8
2121.457	0.8
2125.509	4.8
2129.558	2.8
2133.602	4.8
2137.643	3.8
2141.681	3.8
2145.714	4.8
2149.744	5.8
2153.77	4.8
2157.793	9.8
2161.812	4.8
2165.827	1.8
2169.838	0.8
2173.846	-1.2
2177.851	0.8
2181.851	1.8
2185.848	4.8
2189.841	7.8
2193.831	3.8
2197.817	8.8
2201.799	4.8
2205.778	-0.2
2209.753	0.8
2213.725	-2.2
2217.693	0.8
2221.657	0.8
2225.618	4.8
2229.575	7.8
2233.529	4.8
2237.479	0.8
2241.425	1.8
2245.368	0.8
2249.307	-2.2
2253.243	2.8
2257.175	2.8
2261.104	9.8
2265.029	3.8
2268.95	1.8
2272.868	0.8
2276.783	0.8
2280.694	2.8
2284.601	-0.2
2288.505	1.8
2292.405	1.8
2296.302	2.8
2300.195	5.8
2304.085	2.8
2307.971	1.8
2311.854	0.8
2315.734	-0.2
2319.609	0.8
2323.482	1.8
2327.351	1.8
2331.216	3.8
2335.078	5.8
2338.937	1.8
2342.792	-0.2
2346.643	-2.2
2350.492	1.8
2354.336	-3.2
2358.178	-1.2
2362.015	-1.2
2365.85	2.8
2369.681	1.8
2373.508	0.8
2377.333	1.8
2381.153	1.8
2384.971	1.8
2388.785	2.8
2392.595	2.8
2396.402	3.8
2400.206	1.8
2404.007	-3.2
2407.804	-4.2
2411.597	-0.2
2415.388	0.8
2419.174	0.8
2422.958	4.8
2426.738	-1.2
2430.515	5.8
2434.289	0.8
2438.059	-1.2
2441.825	-6.2
2445.589	-2.2
2449.349	-2.2
2453.106	2.8
2456.859	3.8
2460.61	7.8
2464.356	5.8
2468.1	-0.2
2471.84	-0.2
2475.577	-1.2
2479.311	-4.2
2483.041	2.8
2486.768	-2.2
2490.492	-4.2
2494.213	3.8
2497.93	-0.2
2501.644	1.8
2505.355	-0.2
2509.062	-3.2
2512.766	-3.2
2516.467	-5.2
2520.165	0.8
2523.859	1.8
2527.551	-1.2
2531.239	2.8
2534.923	-1.2
2538.605	-2.2
2542.283	-4.2
2545.958	2.8
2549.63	0.8
2553.299	-1.2
2556.964	0.8
2560.626	-0.2
2564.285	-4.2
2567.941	2.8
2571.594	-2.2
2575.243	-1.2
2578.89	2.8
2582.533	-1.2
2586.173	-1.2
2589.809	0.8
2593.443	-1.2
2597.073	1.8
2600.701	-4.2
2604.325	-0.2
2607.946	0.8
2611.564	3.8
2615.178	4.8
2618.79	1.8
2622.398	-0.2
2626.004	-0.2
2629.606	-1.2
2633.205	-1.2
2636.801	-1.2
2640.394	-0.2
2643.983	2.8
2647.57	2.8
2651.153	2.8
2654.734	-1.2
2658.311	-0.2
2661.885	-0.2
2665.456	-1.2
2669.025	-0.2
2672.589	1.8
2676.151	2.8
2679.71	3.8
2683.266	-0.2
2686.819	4.8
2690.368	-3.2
2693.915	-2.2
2697.458	-4.2
2700.999	0.8
2704.536	1.8
2708.071	2.8
2711.602	4.8
2715.13	3.8
2718.656	3.8
2722.178	-2.2
2725.697	-1.2
2729.214	-2.2
2732.727	-2.2
2736.237	0.8
2739.744	2.8
2743.249	4.8
2746.75	3.8
2750.248	1.8
2753.743	-1.2
2757.236	-1.2
2760.725	-2.2
2764.211	0.8
2767.695	-1.2
2771.175	2.8
2774.652	3.8
2778.127	-0.2
2781.598	1.8
2785.067	0.8
2788.532	-1.2
2791.995	-1.2
2795.455	-3.2
2798.911	-2.2
2802.365	-1.2
2805.816	0.8
2809.264	0.8
2812.709	1.8
2816.151	0.8
2819.59	-2.2
2823.026	-0.2
2826.46	-2.2
2829.89	0.8
2833.318	-1.2
2836.742	0.8
2840.164	6.8
2843.583	7.8
2846.999	5.8
2850.412	7.8
2853.822	3.8
2857.229	5.8
2860.634	3.8
2864.035	6.8
2867.434	9.8
2870.83	10.8
2874.223	13.8
2877.613	12.8
2881	12.8
2884.385	10.8
2887.766	15.8
2891.145	15.8
2894.521	13.8
2897.894	13.8
2901.264	9.8
2904.631	8.8
2907.996	12.8
2911.358	11.8
2914.717	8.8
2918.073	5.8
2921.426	6.8
2924.777	5.8
2928.124	6.8
2931.469	6.8
2934.811	3.8
2938.15	8.8
2941.487	5.8
2944.821	4.8
2948.152	3.8
2951.48	4.8
2954.805	6.8
2958.128	8.8
2961.447	2.8
2964.765	3.8
2968.079	8.8
2971.39	5.8
2974.699	4.8
2978.005	2.8
2981.308	4.8
2984.609	0.8
2987.907	1.8
2991.202	-2.2
2994.494	-1.2
2997.784	-0.2
3001.07	3.8
3004.355	-0.2
3007.636	4.8
3010.915	1.8
3014.191	-1.2
3017.464	-1.2
3020.734	1.8
3024.002	-2.2
3027.267	-0.2
3030.53	-0.2
3033.789	-0.2
3037.046	-1.2
3040.301	1.8
3043.552	0.8
3046.801	1.8
3050.048	-1.2
3053.291	-5.2
3056.532	0.8
3059.771	0.8
3063.006	0.8
3066.239	-0.2
3069.469	-2.2
3072.697	1.8
3075.922	-2.2
3079.144	-0.2
3082.364	0.8
3085.581	-4.2
3088.795	-0.2
3092.007	1.8
3095.216	-0.2
3098.423	-1.2
3101.627	-0.2
3104.828	1.8
3108.026	-1.2
3111.222	-0.2
3114.416	-0.2
3117.607	1.8
3120.795	1.8
3123.98	0.8
3127.163	2.8
3130.344	3.8
3133.521	6.8
3136.696	0.8
3139.869	1.8
3143.039	1.8
3146.206	-0.2
3149.371	2.8
3152.533	1.8
3155.693	-0.2
3158.85	0.8
3162.005	0.8
3165.157	-0.2
3168.306	0.8
3171.453	-1.2
3174.597	0.8
3177.739	1.8
3180.878	-0.2
3184.014	-0.2
3187.149	-0.2
3190.28	0.8
3193.409	0.8
3196.536	-0.2
3199.659	1.8
3202.781	1.8
3205.9	1.8
3209.016	0.8
3212.13	1.8
3215.241	3.8
3218.35	2.8
3221.456	1.8
3224.56	2.8
3227.661	0.8
3230.76	3.8
3233.856	1.8
3236.95	1.8
3240.041	-1.2
3243.13	-1.2
3246.216	2.8
3249.3	4.8
3252.382	2.8
3255.46	5.8
3258.537	-0.2
3261.611	1.8
3264.682	0.8
3267.751	-1.2
3270.818	-3.2
3273.882	-0.2
3276.943	0.8
3280.002	-0.2
3283.059	-1.2
3286.113	-0.2
3289.165	0.8
3292.214	-1.2
3295.261	-0.2
3298.306	-0.2
3301.348	-1.2
3304.387	0.8
3307.425	2.8
3310.459	3.8
3313.492	1.8
3316.521	2.8
3319.549	0.8
3322.574	-1.2
3325.597	-5.2
3328.617	-4.2
3331.635	0.8
3334.65	0.8
3337.663	3.8
3340.674	2.8
3343.682	-0.2
3346.688	2.8
3349.691	-1.2
3352.692	-3.2
3355.691	-5.2
3358.687	-6.2
3361.681	1.8
3364.673	3.8
3367.662	-3.2
3370.649	5.8
3373.633	0.8
3376.615	-0.2
3379.595	-3.2
3382.572	-0.2
3385.547	-3.2
3388.52	-1.2
3391.49	2.8
3394.458	1.8
3397.424	1.8
3400.387	0.8
3403.348	-0.2
3406.307	-4.2
3409.263	-3.2
3412.217	-2.2
3415.168	-3.2
3418.118	0.8
3421.065	3.8
3424.009	-1.2
3426.951	-1.2
3429.891	-0.2
3432.829	-1.2
3435.764	-2.2
3438.697	-5.2
3441.628	-4.2
3444.557	0.8
3447.483	1.8
3450.407	2.8
3453.328	2.8
3456.247	-1.2
3459.164	-1.2
3462.079	0.8
3464.991	-2.2
3467.902	-4.2
3470.809	-2.2
3473.715	-1.2
3476.618	-2.2
3479.519	-3.2
3482.418	-0.2
3485.315	-2.2
3488.209	0.8
3491.101	0.8
3493.99	-5.2
3496.878	-3.2
3499.763	0.8
3502.646	-3.2
3505.527	-3.2
3508.405	-4.2
3511.281	-4.2
3514.155	-1.2
3517.027	-0.2
3519.897	3.8
3522.764	-1.2
3525.629	-0.2
3528.492	-4.2
3531.352	-3.2
3534.211	-2.2
3537.067	-9.2
3539.921	-6.2
3542.773	-1.2
3545.622	2.8
3548.469	-3.2
3551.315	1.8
3554.157	-1.2
3556.998	-3.2
3559.837	-8.2
3562.673	-6.2
3565.507	-3.2
3568.339	-0.2
3571.169	3.8
3573.996	-0.2
3576.822	-1.2
3579.645	-4.2
3582.466	-3.2
3585.285	-3.2
3588.101	-5.2
3590.916	-1.2
3593.728	-0.2
3596.538	-1.2
3599.346	-5.2
3602.152	-1.2
3604.956	-3.2
3607.757	-1.2
3610.556	-4.2
3613.354	-3.2
3616.149	-6.2
3618.942	-3.2
3621.732	-1.2
3624.521	-0.2
3627.307	-0.2
3630.092	-2.2
3632.874	-1.2
3635.654	-3.2
3638.432	-7.2
3641.208	-3.2
3643.982	-2.2
3646.753	-4.2
3649.523	-5.2
3652.29	-1.2
3655.055	-6.2
3657.818	-3.2
3660.579	0.8
3663.338	-1.2
3666.095	-3.2
3668.849	-2.2
3671.602	-3.2
3674.352	0.8
3677.101	-2.2
3679.847	-6.2
3682.591	1.8
3685.333	-1.2
3688.073	-1.2
3690.811	1.8
3693.547	-0.2
3696.281	-6.2
3699.013	-4.2
3701.742	-3.2
3704.47	-7.2
3707.195	-5.2
3709.919	-2.2
3712.64	-4.2
3715.359	-0.2
3718.076	1.8
3720.792	-1.2
3723.505	-3.2
3726.216	-5.2
3728.925	-3.2
3731.632	-7.2
3734.336	-6.2
3737.039	-2.2
3739.74	-1.2
3742.439	-1.2
3745.136	-0.2
3747.83	-5.2
3750.523	-3.2
3753.213	-5.2
3755.902	-2.2
3758.589	-4.2
3761.273	-4.2
3763.956	-1.2
3766.636	-3.2
3769.315	-2.2
3771.991	-2.2
3774.665	-0.2
3777.338	0.8
3780.008	-0.2
3782.677	-4.2
3785.343	-3.2
3788.007	-1.2
3790.67	-0.2
3793.33	-2.2
3795.989	-4.2
3798.645	-4.2
3801.299	-3.2
3803.952	-1.2
3806.602	-2.2
3809.251	-3.2
3811.897	-4.2
3814.542	-5.2
3817.184	-5.2
3819.825	-5.2
3822.463	-4.2
3825.1	-5.2
3827.735	-0.2
3830.367	-0.2
3832.998	-3.2
3835.627	-3.2
3838.253	-1.2
3840.878	-6.2
3843.501	-2.2
3846.122	-3.2
3848.741	-4.2
3851.358	-0.2
3853.973	-2.2
3856.586	-2.2
3859.197	-3.2
3861.806	-8.2
3864.414	-8.2
3867.019	-7.2
3869.622	-5.2
3872.224	-4.2
3874.823	2.8
3877.421	0.8
3880.016	-1.2
3882.61	-2.2
3885.202	-0.2
3887.792	-3.2
3890.38	-5.2
3892.966	-3.2
3895.55	-2.2
3898.132	0.8
3900.713	2.8
3903.291	-3.2
3905.868	-1.2
3908.442	-3.2
3911.015	-4.2
3913.586	-6.2
3916.155	-2.2
3918.722	-1.2
3921.287	-0.2
3923.85	0.8
3926.411	0.8
3928.971	-5.2
3931.528	-1.2
3934.084	-3.2
3936.638	-6.2
3939.19	-2.2
3941.74	-3.2
3944.288	-3.2
3946.834	1.8
3949.378	2.8
3951.921	1.8
3954.462	-3.2
3957	-3.2
3959.537	0.8
3962.072	-4.2
3964.606	-5.2
3967.137	-1.2
3969.667	-1.2
3972.194	-5.2
3974.72	-1.2
3977.244	-2.2
3979.766	-1.2
3982.286	-5.2
3984.805	-4.2
3987.321	-6.2
3989.836	-2.2
3992.349	-1.2
3994.86	-1.2
3997.369	-0.2
3999.877	-1.2
4002.382	-4.2
4004.886	-4.2
4007.388	-3.2
4009.888	-8.2
4012.386	-3.2
4014.883	-3.2
4017.377	-1.2
4019.87	-1.2
4022.361	-1.2
4024.85	-3.2
4027.338	-6.2
4029.823	-4.2
4032.307	-2.2
4034.789	-3.2
4037.269	-3.2
4039.747	-3.2
4042.224	-1.2
4044.699	-3.2
4047.172	-4.2
4049.643	-4.2
4052.112	-5.2
4054.58	-4.2
4057.046	-2.2
4059.51	-5.2
4061.972	-1.2
4064.432	-3.2
4066.891	-1.2
4069.348	-1.2
4071.803	-3.2
4074.256	-5.2
4076.708	-1.2
4079.158	-2.2
4081.606	-6.2
4084.052	-1.2
4086.497	-2.2
4088.939	0.8
4091.38	2.8
4093.819	-3.2
4096.257	-5.2
4098.693	-2.2
4101.127	-2.2
4103.559	1.8
4105.989	5.8
4108.418	4.8
4110.845	3.8
4113.27	-4.2
4115.694	-4.2
4118.115	-2.2
4120.535	-3.2
4122.954	-5.2
4125.37	-5.2
4127.785	-7.2
4130.198	-1.2
4132.609	-2.2
4135.019	-1.2
4137.427	-1.2
4139.833	-3.2
4142.237	-4.2
