Data from 0.5_n=1_RamanShift_03.txt Node
Date: Mon Mar 19 12:15:03 IST 2018
User: aro
Spectrometer: QEPB0276
Trigger mode: 0
Integration Time (sec): 5.000000E0
Scans to average: 1
Electric dark correction enabled: true
Nonlinearity correction enabled: false
Boxcar width: 0
XAxis mode: Raman Shifts
Number of Pixels in Spectrum: 1044
>>>>>Begin Spectral Data<<<<<
160.701	2.1
166.742	1.1
172.777	3.1
178.805	7.1
184.826	16.1
190.841	35.1
196.849	60.1
202.85	74.1
208.845	79.1
214.833	84.1
220.815	87.1
226.789	81.1
232.758	79.1
238.719	86.1
244.674	83.1
250.623	85.1
256.565	81.1
262.5	82.1
268.429	81.1
274.351	84.1
280.267	93.1
286.176	85.1
292.079	89.1
297.975	89.1
303.865	82.1
309.748	87.1
315.625	89.1
321.495	87.1
327.359	93.1
333.217	87.1
339.068	94.1
344.912	94.1
350.751	86.1
356.583	89.1
362.408	89.1
368.227	89.1
374.04	94.1
379.847	94.1
385.647	106.1
391.44	111.1
397.228	103.1
403.009	108.1
408.784	111.1
414.553	115.1
420.315	130.1
426.071	136.1
431.821	120.1
437.565	105.1
443.302	99.1
449.033	99.1
454.758	100.1
460.477	99.1
466.189	96.1
471.896	89.1
477.596	91.1
483.29	90.1
488.978	88.1
494.66	88.1
500.335	86.1
506.005	80.1
511.668	74.1
517.325	66.1
522.977	56.1
528.622	56.1
534.261	52.1
539.894	50.1
545.521	52.1
551.141	52.1
556.756	52.1
562.365	45.1
567.968	47.1
573.565	48.1
579.155	39.1
584.74	43.1
590.319	39.1
595.892	43.1
601.459	44.1
607.02	46.1
612.575	49.1
618.124	44.1
623.667	44.1
629.204	44.1
634.735	42.1
640.261	42.1
645.781	42.1
651.294	52.1
656.802	50.1
662.304	43.1
667.8	44.1
673.29	39.1
678.775	34.1
684.254	34.1
689.726	31.1
695.193	34.1
700.655	33.1
706.11	37.1
711.56	33.1
717.004	39.1
722.442	36.1
727.874	36.1
733.301	33.1
738.722	31.1
744.137	33.1
749.547	35.1
754.951	39.1
760.349	34.1
765.741	39.1
771.128	37.1
776.509	42.1
781.885	41.1
787.254	42.1
792.618	37.1
797.977	39.1
803.33	45.1
808.677	51.1
814.019	57.1
819.355	59.1
824.686	51.1
830.011	40.1
835.33	41.1
840.644	45.1
845.952	46.1
851.255	45.1
856.552	44.1
861.844	36.1
867.13	32.1
872.41	35.1
877.686	29.1
882.955	30.1
888.219	32.1
893.478	30.1
898.731	28.1
903.979	29.1
909.221	36.1
914.458	31.1
919.69	29.1
924.916	29.1
930.136	29.1
935.351	33.1
940.561	29.1
945.766	33.1
950.965	29.1
956.158	26.1
961.347	26.1
966.529	30.1
971.707	28.1
976.879	32.1
982.046	33.1
987.208	31.1
992.364	27.1
997.515	29.1
1002.66	33.1
1007.801	32.1
1012.936	28.1
1018.066	32.1
1023.19	26.1
1028.309	29.1
1033.423	30.1
1038.532	38.1
1043.636	37.1
1048.734	36.1
1053.827	33.1
1058.915	26.1
1063.998	24.1
1069.075	24.1
1074.147	28.1
1079.214	27.1
1084.276	27.1
1089.333	29.1
1094.385	29.1
1099.431	27.1
1104.472	26.1
1109.509	27.1
1114.54	21.1
1119.565	23.1
1124.586	29.1
1129.602	26.1
1134.613	26.1
1139.618	28.1
1144.619	31.1
1149.614	30.1
1154.604	34.1
1159.589	37.1
1164.57	37.1
1169.545	40.1
1174.515	35.1
1179.48	34.1
1184.44	32.1
1189.395	26.1
1194.345	27.1
1199.29	25.1
1204.23	23.1
1209.165	22.1
1214.095	23.1
1219.021	29.1
1223.941	32.1
1228.856	32.1
1233.766	32.1
1238.672	27.1
1243.572	24.1
1248.467	23.1
1253.358	21.1
1258.244	24.1
1263.124	21.1
1268	22.1
1272.871	24.1
1277.737	26.1
1282.599	21.1
1287.455	22.1
1292.306	23.1
1297.153	18.1
1301.995	23.1
1306.832	21.1
1311.664	24.1
1316.491	25.1
1321.314	27.1
1326.132	34.1
1330.945	32.1
1335.753	37.1
1340.556	32.1
1345.354	26.1
1350.148	23.1
1354.937	23.1
1359.722	29.1
1364.501	28.1
1369.276	30.1
1374.046	29.1
1378.811	20.1
1383.572	14.1
1388.327	19.1
1393.079	16.1
1397.825	16.1
1402.567	18.1
1407.304	22.1
1412.036	18.1
1416.764	20.1
1421.487	21.1
1426.205	16.1
1430.919	18.1
1435.628	19.1
1440.333	25.1
1445.032	28.1
1449.727	29.1
1454.418	37.1
1459.104	42.1
1463.785	39.1
1468.462	40.1
1473.134	33.1
1477.802	25.1
1482.465	14.1
1487.123	20.1
1491.777	20.1
1496.426	17.1
1501.071	19.1
1505.711	21.1
1510.347	18.1
1514.978	15.1
1519.604	22.1
1524.226	13.1
1528.844	13.1
1533.457	17.1
1538.065	21.1
1542.669	18.1
1547.269	18.1
1551.864	13.1
1556.454	15.1
1561.041	14.1
1565.622	14.1
1570.199	11.1
1574.772	10.1
1579.34	18.1
1583.904	16.1
1588.464	18.1
1593.019	13.1
1597.569	18.1
1602.115	17.1
1606.657	12.1
1611.195	16.1
1615.728	16.1
1620.256	16.1
1624.78	13.1
1629.3	14.1
1633.816	14.1
1638.327	21.1
1642.834	16.1
1647.336	13.1
1651.834	10.1
1656.328	14.1
1660.817	12.1
1665.302	15.1
1669.783	19.1
1674.259	15.1
1678.732	15.1
1683.199	16.1
1687.663	16.1
1692.122	15.1
1696.577	11.1
1701.028	16.1
1705.474	12.1
1709.917	14.1
1714.355	9.1
1718.788	12.1
1723.218	12.1
1727.643	8.1
1732.064	14.1
1736.481	15.1
1740.893	8.1
1745.301	20.1
1749.705	13.1
1754.105	10.1
1758.501	7.1
1762.893	9.1
1767.28	8.1
1771.663	12.1
1776.042	8.1
1780.417	11.1
1784.787	13.1
1789.154	12.1
1793.516	9.1
1797.874	8.1
1802.228	7.1
1806.578	7.1
1810.924	13.1
1815.266	10.1
1819.603	11.1
1823.937	12.1
1828.266	12.1
1832.591	8.1
1836.913	7.1
1841.23	8.1
1845.543	10.1
1849.852	8.1
1854.156	5.1
1858.457	9.1
1862.754	16.1
1867.047	10.1
1871.335	15.1
1875.62	6.1
1879.9	10.1
1884.177	8.1
1888.449	8.1
1892.718	8.1
1896.982	9.1
1901.243	9.1
1905.499	13.1
1909.752	9.1
1914	12.1
1918.245	9.1
1922.485	6.1
1926.722	10.1
1930.954	4.1
1935.183	7.1
1939.408	8.1
1943.628	13.1
1947.845	12.1
1952.058	13.1
1956.267	9.1
1960.472	5.1
1964.673	5.1
1968.87	4.1
1973.063	8.1
1977.252	3.1
1981.438	6.1
1985.619	7.1
1989.797	5.1
1993.971	4.1
1998.14	7.1
2002.306	10.1
2006.469	8.1
2010.627	6.1
2014.781	7.1
2018.932	6.1
2023.078	6.1
2027.221	7.1
2031.36	5.1
2035.495	9.1
2039.627	5.1
2043.754	7.1
2047.878	10.1
2051.998	7.1
2056.114	7.1
2060.226	10.1
2064.334	3.1
2068.439	6.1
2072.54	4.1
2076.637	7.1
2080.73	6.1
2084.82	8.1
2088.906	8.1
2092.988	6.1
2097.066	4.1
2101.14	7.1
2105.211	4.1
2109.278	7.1
2113.342	6.1
2117.401	8.1
2121.457	8.1
2125.509	9.1
2129.558	7.1
2133.602	6.1
2137.643	4.1
2141.681	3.1
2145.714	4.1
2149.744	2.1
2153.77	6.1
2157.793	10.1
2161.812	11.1
2165.827	8.1
2169.838	3.1
2173.846	7.1
2177.851	3.1
2181.851	5.1
2185.848	6.1
2189.841	4.1
2193.831	1.1
2197.817	6.1
2201.799	5.1
2205.778	4.1
2209.753	3.1
2213.725	3.1
2217.693	2.1
2221.657	1.1
2225.618	2.1
2229.575	7.1
2233.529	6.1
2237.479	3.1
2241.425	4.1
2245.368	7.1
2249.307	1.1
2253.243	4.1
2257.175	2.1
2261.104	5.1
2265.029	3.1
2268.95	1.1
2272.868	2.1
2276.783	-0.9
2280.694	4.1
2284.601	6.1
2288.505	6.1
2292.405	6.1
2296.302	4.1
2300.195	6.1
2304.085	3.1
2307.971	2.1
2311.854	-0.9
2315.734	1.1
2319.609	4.1
2323.482	3.1
2327.351	4.1
2331.216	9.1
2335.078	9.1
2338.937	5.1
2342.792	-2.9
2346.643	-1.9
2350.492	-0.9
2354.336	0.1
2358.178	6.1
2362.015	3.1
2365.85	7.1
2369.681	3.1
2373.508	2.1
2377.333	1.1
2381.153	0.1
2384.971	-0.9
2388.785	0.1
2392.595	5.1
2396.402	6.1
2400.206	5.1
2404.007	3.1
2407.804	4.1
2411.597	3.1
2415.388	1.1
2419.174	2.1
2422.958	2.1
2426.738	-2.9
2430.515	5.1
2434.289	3.1
2438.059	2.1
2441.825	-1.9
2445.589	4.1
2449.349	0.1
2453.106	4.1
2456.859	0.1
2460.61	3.1
2464.356	4.1
2468.1	1.1
2471.84	0.1
2475.577	1.1
2479.311	0.1
2483.041	4.1
2486.768	4.1
2490.492	-0.9
2494.213	-0.9
2497.93	-1.9
2501.644	1.1
2505.355	2.1
2509.062	-0.9
2512.766	4.1
2516.467	2.1
2520.165	3.1
2523.859	4.1
2527.551	-1.9
2531.239	3.1
2534.923	-0.9
2538.605	-3.9
2542.283	-4.9
2545.958	4.1
2549.63	4.1
2553.299	6.1
2556.964	5.1
2560.626	4.1
2564.285	-1.9
2567.941	0.1
2571.594	-2.9
2575.243	-0.9
2578.89	1.1
2582.533	2.1
2586.173	1.1
2589.809	3.1
2593.443	5.1
2597.073	0.1
2600.701	0.1
2604.325	-2.9
2607.946	-1.9
2611.564	2.1
2615.178	1.1
2618.79	4.1
2622.398	3.1
2626.004	5.1
2629.606	2.1
2633.205	3.1
2636.801	2.1
2640.394	-0.9
2643.983	-0.9
2647.57	2.1
2651.153	5.1
2654.734	2.1
2658.311	0.1
2661.885	2.1
2665.456	1.1
2669.025	0.1
2672.589	1.1
2676.151	0.1
2679.71	3.1
2683.266	1.1
2686.819	3.1
2690.368	4.1
2693.915	2.1
2697.458	-0.9
2700.999	5.1
2704.536	-0.9
2708.071	2.1
2711.602	1.1
2715.13	1.1
2718.656	3.1
2722.178	1.1
2725.697	1.1
2729.214	3.1
2732.727	2.1
2736.237	3.1
2739.744	4.1
2743.249	5.1
2746.75	1.1
2750.248	-1.9
2753.743	2.1
2757.236	-1.9
2760.725	0.1
2764.211	2.1
2767.695	2.1
2771.175	0.1
2774.652	3.1
2778.127	-1.9
2781.598	2.1
2785.067	-2.9
2788.532	1.1
2791.995	1.1
2795.455	1.1
2798.911	3.1
2802.365	4.1
2805.816	0.1
2809.264	1.1
2812.709	1.1
2816.151	1.1
2819.59	-1.9
2823.026	3.1
2826.46	1.1
2829.89	7.1
2833.318	5.1
2836.742	6.1
2840.164	8.1
2843.583	9.1
2846.999	9.1
2850.412	8.1
2853.822	10.1
2857.229	10.1
2860.634	10.1
2864.035	8.1
2867.434	13.1
2870.83	14.1
2874.223	18.1
2877.613	17.1
2881	14.1
2884.385	19.1
2887.766	22.1
2891.145	23.1
2894.521	23.1
2897.894	20.1
2901.264	18.1
2904.631	17.1
2907.996	18.1
2911.358	12.1
2914.717	12.1
2918.073	13.1
2921.426	11.1
2924.777	14.1
2928.124	14.1
2931.469	14.1
2934.811	10.1
2938.15	10.1
2941.487	9.1
2944.821	8.1
2948.152	4.1
2951.48	8.1
2954.805	13.1
2958.128	11.1
2961.447	8.1
2964.765	8.1
2968.079	14.1
2971.39	5.1
2974.699	3.1
2978.005	1.1
2981.308	4.1
2984.609	2.1
2987.907	4.1
2991.202	2.1
2994.494	2.1
2997.784	5.1
3001.07	3.1
3004.355	-1.9
3007.636	2.1
3010.915	3.1
3014.191	2.1
3017.464	0.1
3020.734	6.1
3024.002	0.1
3027.267	6.1
3030.53	0.1
3033.789	-0.9
3037.046	0.1
3040.301	-1.9
3043.552	-3.9
3046.801	2.1
3050.048	5.1
3053.291	2.1
3056.532	2.1
3059.771	4.1
3063.006	-1.9
3066.239	-2.9
3069.469	2.1
3072.697	0.1
3075.922	-1.9
3079.144	2.1
3082.364	2.1
3085.581	2.1
3088.795	4.1
3092.007	2.1
3095.216	-0.9
3098.423	-3.9
3101.627	-3.9
3104.828	2.1
3108.026	3.1
3111.222	2.1
3114.416	5.1
3117.607	6.1
3120.795	5.1
3123.98	4.1
3127.163	-0.9
3130.344	0.1
3133.521	1.1
3136.696	1.1
3139.869	4.1
3143.039	7.1
3146.206	6.1
3149.371	4.1
3152.533	3.1
3155.693	1.1
3158.85	-0.9
3162.005	-0.9
3165.157	1.1
3168.306	-0.9
3171.453	2.1
3174.597	9.1
3177.739	3.1
3180.878	5.1
3184.014	5.1
3187.149	-1.9
3190.28	-0.9
3193.409	-1.9
3196.536	0.1
3199.659	6.1
3202.781	4.1
3205.9	8.1
3209.016	3.1
3212.13	4.1
3215.241	0.1
3218.35	3.1
3221.456	-2.9
3224.56	1.1
3227.661	2.1
3230.76	7.1
3233.856	8.1
3236.95	6.1
3240.041	1.1
3243.13	-0.9
3246.216	-1.9
3249.3	2.1
3252.382	-0.9
3255.46	2.1
3258.537	3.1
3261.611	6.1
3264.682	4.1
3267.751	4.1
3270.818	1.1
3273.882	0.1
3276.943	1.1
3280.002	-1.9
3283.059	-1.9
3286.113	-0.9
3289.165	-0.9
3292.214	3.1
3295.261	2.1
3298.306	1.1
3301.348	4.1
3304.387	1.1
3307.425	5.1
3310.459	2.1
3313.492	-1.9
3316.521	0.1
3319.549	-0.9
3322.574	-0.9
3325.597	1.1
3328.617	-1.9
3331.635	5.1
3334.65	2.1
3337.663	2.1
3340.674	2.1
3343.682	3.1
3346.688	0.1
3349.691	-1.9
3352.692	-1.9
3355.691	-3.9
3358.687	-1.9
3361.681	2.1
3364.673	5.1
3367.662	2.1
3370.649	5.1
3373.633	2.1
3376.615	2.1
3379.595	-4.9
3382.572	0.1
3385.547	-1.9
3388.52	-2.9
3391.49	2.1
3394.458	2.1
3397.424	1.1
3400.387	2.1
3403.348	0.1
3406.307	-0.9
3409.263	-0.9
3412.217	-0.9
3415.168	-1.9
3418.118	0.1
3421.065	3.1
3424.009	1.1
3426.951	3.1
3429.891	1.1
3432.829	0.1
3435.764	2.1
3438.697	-4.9
3441.628	-2.9
3444.557	-2.9
3447.483	1.1
3450.407	1.1
3453.328	4.1
3456.247	-1.9
3459.164	-0.9
3462.079	2.1
3464.991	-0.9
3467.902	-4.9
3470.809	-0.9
3473.715	2.1
3476.618	2.1
3479.519	-1.9
3482.418	-0.9
3485.315	-1.9
3488.209	0.1
3491.101	0.1
3493.99	-1.9
3496.878	-1.9
3499.763	-0.9
3502.646	2.1
3505.527	-0.9
3508.405	2.1
3511.281	-0.9
3514.155	-0.9
3517.027	1.1
3519.897	0.1
3522.764	-4.9
3525.629	-3.9
3528.492	-1.9
3531.352	-4.9
3534.211	-0.9
3537.067	-3.9
3539.921	-4.9
3542.773	-0.9
3545.622	1.1
3548.469	-1.9
3551.315	2.1
3554.157	0.1
3556.998	-2.9
3559.837	-5.9
3562.673	-2.9
3565.507	-1.9
3568.339	-1.9
3571.169	0.1
3573.996	1.1
3576.822	-0.9
3579.645	-1.9
3582.466	-2.9
3585.285	-3.9
3588.101	-6.9
3590.916	-2.9
3593.728	0.1
3596.538	-0.9
3599.346	-0.9
3602.152	-1.9
3604.956	-1.9
3607.757	-1.9
3610.556	-3.9
3613.354	-0.9
3616.149	-6.9
3618.942	-2.9
3621.732	1.1
3624.521	-1.9
3627.307	-0.9
3630.092	-0.9
3632.874	-0.9
3635.654	-1.9
3638.432	-6.9
3641.208	-4.9
3643.982	-2.9
3646.753	0.1
3649.523	-4.9
3652.29	-0.9
3655.055	-4.9
3657.818	-3.9
3660.579	0.1
3663.338	0.1
3666.095	-1.9
3668.849	-0.9
3671.602	-4.9
3674.352	0.1
3677.101	-0.9
3679.847	-4.9
3682.591	0.1
3685.333	-2.9
3688.073	-2.9
3690.811	1.1
3693.547	2.1
3696.281	-2.9
3699.013	-3.9
3701.742	-5.9
3704.47	-6.9
3707.195	-2.9
3709.919	-0.9
3712.64	-0.9
3715.359	1.1
3718.076	-0.9
3720.792	0.1
3723.505	-5.9
3726.216	-6.9
3728.925	-1.9
3731.632	-4.9
3734.336	-4.9
3737.039	1.1
3739.74	3.1
3742.439	0.1
3745.136	0.1
3747.83	-0.9
3750.523	-4.9
3753.213	-5.9
3755.902	-3.9
3758.589	-1.9
3761.273	1.1
3763.956	0.1
3766.636	-0.9
3769.315	-5.9
3771.991	-3.9
3774.665	-0.9
3777.338	-3.9
3780.008	-2.9
3782.677	-2.9
3785.343	-1.9
3788.007	0.1
3790.67	0.1
3793.33	-0.9
3795.989	-1.9
3798.645	-2.9
3801.299	-2.9
3803.952	-3.9
3806.602	-0.9
3809.251	-0.9
3811.897	-1.9
3814.542	0.1
3817.184	-1.9
3819.825	-4.9
3822.463	-4.9
3825.1	-3.9
3827.735	-1.9
3830.367	0.1
3832.998	-3.9
3835.627	-1.9
3838.253	3.1
3840.878	-0.9
3843.501	-1.9
3846.122	-3.9
3848.741	-1.9
3851.358	-0.9
3853.973	0.1
3856.586	-4.9
3859.197	-1.9
3861.806	-4.9
3864.414	-5.9
3867.019	-2.9
3869.622	-1.9
3872.224	-0.9
3874.823	2.1
3877.421	1.1
3880.016	-2.9
3882.61	-0.9
3885.202	1.1
3887.792	-0.9
3890.38	-1.9
3892.966	-3.9
3895.55	2.1
3898.132	0.1
3900.713	2.1
3903.291	-1.9
3905.868	-2.9
3908.442	-3.9
3911.015	-5.9
3913.586	0.1
3916.155	-1.9
3918.722	1.1
3921.287	1.1
3923.85	1.1
3926.411	-0.9
3928.971	-6.9
3931.528	-1.9
3934.084	-3.9
3936.638	-4.9
3939.19	-6.9
3941.74	1.1
3944.288	-2.9
3946.834	1.1
3949.378	0.1
3951.921	-1.9
3954.462	-5.9
3957	-8.9
3959.537	-1.9
3962.072	-1.9
3964.606	-3.9
3967.137	-0.9
3969.667	3.1
3972.194	-2.9
3974.72	-2.9
3977.244	-4.9
3979.766	-1.9
3982.286	-5.9
3984.805	-4.9
3987.321	-2.9
3989.836	-1.9
3992.349	2.1
3994.86	0.1
3997.369	-3.9
3999.877	-4.9
4002.382	-4.9
4004.886	-5.9
4007.388	-3.9
4009.888	-2.9
4012.386	-1.9
4014.883	-0.9
4017.377	1.1
4019.87	-2.9
4022.361	-0.9
4024.85	-4.9
4027.338	-5.9
4029.823	-2.9
4032.307	-3.9
4034.789	-1.9
4037.269	-1.9
4039.747	3.1
4042.224	0.1
4044.699	-3.9
4047.172	1.1
4049.643	-5.9
4052.112	-5.9
4054.58	-4.9
4057.046	-3.9
4059.51	-1.9
4061.972	1.1
4064.432	2.1
4066.891	0.1
4069.348	-1.9
4071.803	-5.9
4074.256	-7.9
4076.708	-4.9
4079.158	-0.9
4081.606	-4.9
4084.052	3.1
4086.497	-1.9
4088.939	0.1
4091.38	0.1
4093.819	-3.9
4096.257	-1.9
4098.693	-3.9
4101.127	-3.9
4103.559	0.1
4105.989	3.1
4108.418	1.1
4110.845	1.1
4113.27	-1.9
4115.694	2.1
4118.115	4.1
4120.535	-2.9
4122.954	-4.9
4125.37	-6.9
4127.785	-4.9
4130.198	1.1
4132.609	2.1
4135.019	-1.9
4137.427	-1.9
4139.833	-4.9
4142.237	-4.9
