Data from 0.5_n=4_RamanShift_01.txt Node
Date: Mon Mar 19 12:22:08 IST 2018
User: aro
Spectrometer: QEPB0276
Trigger mode: 0
Integration Time (sec): 5.000000E0
Scans to average: 1
Electric dark correction enabled: true
Nonlinearity correction enabled: false
Boxcar width: 0
XAxis mode: Raman Shifts
Number of Pixels in Spectrum: 1044
>>>>>Begin Spectral Data<<<<<
160.701	-0.9
166.742	0.1
172.777	1.1
178.805	9.1
184.826	18.1
190.841	35.1
196.849	65.1
202.85	69.1
208.845	73.1
214.833	76.1
220.815	75.1
226.789	77.1
232.758	75.1
238.719	80.1
244.674	76.1
250.623	81.1
256.565	80.1
262.5	79.1
268.429	78.1
274.351	82.1
280.267	81.1
286.176	79.1
292.079	75.1
297.975	85.1
303.865	85.1
309.748	83.1
315.625	86.1
321.495	87.1
327.359	86.1
333.217	86.1
339.068	86.1
344.912	91.1
350.751	86.1
356.583	91.1
362.408	84.1
368.227	90.1
374.04	86.1
379.847	93.1
385.647	99.1
391.44	100.1
397.228	98.1
403.009	103.1
408.784	107.1
414.553	117.1
420.315	121.1
426.071	132.1
431.821	113.1
437.565	97.1
443.302	88.1
449.033	93.1
454.758	91.1
460.477	90.1
466.189	89.1
471.896	85.1
477.596	89.1
483.29	86.1
488.978	85.1
494.66	88.1
500.335	79.1
506.005	76.1
511.668	68.1
517.325	63.1
522.977	57.1
528.622	56.1
534.261	52.1
539.894	48.1
545.521	48.1
551.141	46.1
556.756	42.1
562.365	43.1
567.968	38.1
573.565	39.1
579.155	36.1
584.74	42.1
590.319	39.1
595.892	45.1
601.459	41.1
607.02	39.1
612.575	38.1
618.124	41.1
623.667	36.1
629.204	37.1
634.735	33.1
640.261	44.1
645.781	41.1
651.294	48.1
656.802	50.1
662.304	41.1
667.8	33.1
673.29	34.1
678.775	33.1
684.254	27.1
689.726	28.1
695.193	34.1
700.655	33.1
706.11	34.1
711.56	34.1
717.004	32.1
722.442	31.1
727.874	30.1
733.301	28.1
738.722	31.1
744.137	30.1
749.547	29.1
754.951	35.1
760.349	33.1
765.741	35.1
771.128	35.1
776.509	32.1
781.885	38.1
787.254	38.1
792.618	32.1
797.977	38.1
803.33	43.1
808.677	47.1
814.019	48.1
819.355	50.1
824.686	39.1
830.011	32.1
835.33	36.1
840.644	40.1
845.952	38.1
851.255	40.1
856.552	41.1
861.844	36.1
867.13	34.1
872.41	31.1
877.686	27.1
882.955	22.1
888.219	27.1
893.478	23.1
898.731	26.1
903.979	25.1
909.221	31.1
914.458	29.1
919.69	29.1
924.916	25.1
930.136	25.1
935.351	23.1
940.561	21.1
945.766	24.1
950.965	23.1
956.158	29.1
961.347	28.1
966.529	29.1
971.707	25.1
976.879	28.1
982.046	27.1
987.208	20.1
992.364	24.1
997.515	21.1
1002.66	27.1
1007.801	32.1
1012.936	26.1
1018.066	25.1
1023.19	23.1
1028.309	22.1
1033.423	21.1
1038.532	27.1
1043.636	29.1
1048.734	30.1
1053.827	30.1
1058.915	22.1
1063.998	27.1
1069.075	23.1
1074.147	23.1
1079.214	20.1
1084.276	24.1
1089.333	25.1
1094.385	25.1
1099.431	27.1
1104.472	24.1
1109.509	24.1
1114.54	22.1
1119.565	18.1
1124.586	26.1
1129.602	20.1
1134.613	21.1
1139.618	22.1
1144.619	27.1
1149.614	27.1
1154.604	29.1
1159.589	34.1
1164.57	35.1
1169.545	31.1
1174.515	27.1
1179.48	24.1
1184.44	27.1
1189.395	22.1
1194.345	25.1
1199.29	22.1
1204.23	25.1
1209.165	22.1
1214.095	20.1
1219.021	24.1
1223.941	29.1
1228.856	22.1
1233.766	21.1
1238.672	21.1
1243.572	22.1
1248.467	22.1
1253.358	25.1
1258.244	24.1
1263.124	21.1
1268	19.1
1272.871	17.1
1277.737	17.1
1282.599	19.1
1287.455	16.1
1292.306	23.1
1297.153	19.1
1301.995	20.1
1306.832	20.1
1311.664	21.1
1316.491	20.1
1321.314	22.1
1326.132	25.1
1330.945	28.1
1335.753	32.1
1340.556	29.1
1345.354	21.1
1350.148	28.1
1354.937	22.1
1359.722	23.1
1364.501	19.1
1369.276	20.1
1374.046	19.1
1378.811	18.1
1383.572	14.1
1388.327	21.1
1393.079	18.1
1397.825	17.1
1402.567	17.1
1407.304	17.1
1412.036	18.1
1416.764	15.1
1421.487	15.1
1426.205	17.1
1430.919	19.1
1435.628	20.1
1440.333	25.1
1445.032	25.1
1449.727	23.1
1454.418	33.1
1459.104	32.1
1463.785	30.1
1468.462	31.1
1473.134	28.1
1477.802	22.1
1482.465	18.1
1487.123	20.1
1491.777	20.1
1496.426	20.1
1501.071	15.1
1505.711	16.1
1510.347	13.1
1514.978	15.1
1519.604	16.1
1524.226	14.1
1528.844	17.1
1533.457	17.1
1538.065	18.1
1542.669	15.1
1547.269	14.1
1551.864	8.1
1556.454	16.1
1561.041	11.1
1565.622	14.1
1570.199	16.1
1574.772	13.1
1579.34	13.1
1583.904	17.1
1588.464	14.1
1593.019	10.1
1597.569	14.1
1602.115	15.1
1606.657	12.1
1611.195	14.1
1615.728	14.1
1620.256	16.1
1624.78	15.1
1629.3	13.1
1633.816	12.1
1638.327	12.1
1642.834	13.1
1647.336	14.1
1651.834	14.1
1656.328	16.1
1660.817	15.1
1665.302	17.1
1669.783	14.1
1674.259	11.1
1678.732	11.1
1683.199	11.1
1687.663	11.1
1692.122	11.1
1696.577	9.1
1701.028	16.1
1705.474	11.1
1709.917	16.1
1714.355	9.1
1718.788	11.1
1723.218	10.1
1727.643	6.1
1732.064	7.1
1736.481	15.1
1740.893	9.1
1745.301	16.1
1749.705	14.1
1754.105	11.1
1758.501	10.1
1762.893	8.1
1767.28	5.1
1771.663	9.1
1776.042	7.1
1780.417	12.1
1784.787	10.1
1789.154	12.1
1793.516	12.1
1797.874	12.1
1802.228	9.1
1806.578	4.1
1810.924	8.1
1815.266	12.1
1819.603	9.1
1823.937	13.1
1828.266	13.1
1832.591	10.1
1836.913	7.1
1841.23	6.1
1845.543	7.1
1849.852	7.1
1854.156	3.1
1858.457	7.1
1862.754	13.1
1867.047	10.1
1871.335	12.1
1875.62	9.1
1879.9	9.1
1884.177	7.1
1888.449	3.1
1892.718	10.1
1896.982	6.1
1901.243	10.1
1905.499	11.1
1909.752	8.1
1914	10.1
1918.245	8.1
1922.485	6.1
1926.722	5.1
1930.954	5.1
1935.183	8.1
1939.408	9.1
1943.628	10.1
1947.845	12.1
1952.058	11.1
1956.267	8.1
1960.472	5.1
1964.673	5.1
1968.87	5.1
1973.063	7.1
1977.252	6.1
1981.438	8.1
1985.619	10.1
1989.797	6.1
1993.971	6.1
1998.14	8.1
2002.306	7.1
2006.469	5.1
2010.627	7.1
2014.781	3.1
2018.932	8.1
2023.078	5.1
2027.221	8.1
2031.36	6.1
2035.495	6.1
2039.627	4.1
2043.754	9.1
2047.878	8.1
2051.998	9.1
2056.114	7.1
2060.226	8.1
2064.334	2.1
2068.439	2.1
2072.54	5.1
2076.637	8.1
2080.73	7.1
2084.82	10.1
2088.906	10.1
2092.988	6.1
2097.066	6.1
2101.14	5.1
2105.211	4.1
2109.278	4.1
2113.342	5.1
2117.401	6.1
2121.457	6.1
2125.509	11.1
2129.558	6.1
2133.602	6.1
2137.643	4.1
2141.681	4.1
2145.714	2.1
2149.744	6.1
2153.77	4.1
2157.793	11.1
2161.812	8.1
2165.827	7.1
2169.838	2.1
2173.846	4.1
2177.851	2.1
2181.851	2.1
2185.848	5.1
2189.841	3.1
2193.831	4.1
2197.817	7.1
2201.799	8.1
2205.778	5.1
2209.753	3.1
2213.725	0.1
2217.693	1.1
2221.657	-0.9
2225.618	5.1
2229.575	6.1
2233.529	5.1
2237.479	4.1
2241.425	2.1
2245.368	5.1
2249.307	2.1
2253.243	5.1
2257.175	1.1
2261.104	8.1
2265.029	3.1
2268.95	1.1
2272.868	1.1
2276.783	4.1
2280.694	5.1
2284.601	4.1
2288.505	3.1
2292.405	3.1
2296.302	2.1
2300.195	4.1
2304.085	1.1
2307.971	1.1
2311.854	0.1
2315.734	4.1
2319.609	3.1
2323.482	6.1
2327.351	4.1
2331.216	9.1
2335.078	3.1
2338.937	4.1
2342.792	-2.9
2346.643	0.1
2350.492	1.1
2354.336	2.1
2358.178	3.1
2362.015	3.1
2365.85	2.1
2369.681	1.1
2373.508	-1.9
2377.333	2.1
2381.153	-0.9
2384.971	0.1
2388.785	3.1
2392.595	6.1
2396.402	2.1
2400.206	4.1
2404.007	1.1
2407.804	1.1
2411.597	2.1
2415.388	-0.9
2419.174	1.1
2422.958	4.1
2426.738	-2.9
2430.515	8.1
2434.289	4.1
2438.059	4.1
2441.825	-1.9
2445.589	3.1
2449.349	0.1
2453.106	2.1
2456.859	1.1
2460.61	4.1
2464.356	6.1
2468.1	5.1
2471.84	0.1
2475.577	1.1
2479.311	-0.9
2483.041	6.1
2486.768	0.1
2490.492	0.1
2494.213	0.1
2497.93	0.1
2501.644	0.1
2505.355	2.1
2509.062	-0.9
2512.766	5.1
2516.467	0.1
2520.165	5.1
2523.859	2.1
2527.551	0.1
2531.239	1.1
2534.923	-0.9
2538.605	-2.9
2542.283	-2.9
2545.958	3.1
2549.63	4.1
2553.299	1.1
2556.964	2.1
2560.626	4.1
2564.285	-2.9
2567.941	0.1
2571.594	-2.9
2575.243	-3.9
2578.89	1.1
2582.533	2.1
2586.173	3.1
2589.809	1.1
2593.443	3.1
2597.073	2.1
2600.701	-1.9
2604.325	-3.9
2607.946	-0.9
2611.564	0.1
2615.178	3.1
2618.79	2.1
2622.398	4.1
2626.004	2.1
2629.606	5.1
2633.205	0.1
2636.801	0.1
2640.394	-1.9
2643.983	-0.9
2647.57	0.1
2651.153	3.1
2654.734	4.1
2658.311	0.1
2661.885	1.1
2665.456	0.1
2669.025	0.1
2672.589	3.1
2676.151	-0.9
2679.71	1.1
2683.266	-0.9
2686.819	6.1
2690.368	3.1
2693.915	2.1
2697.458	0.1
2700.999	2.1
2704.536	1.1
2708.071	2.1
2711.602	3.1
2715.13	2.1
2718.656	1.1
2722.178	0.1
2725.697	1.1
2729.214	4.1
2732.727	2.1
2736.237	1.1
2739.744	2.1
2743.249	4.1
2746.75	3.1
2750.248	0.1
2753.743	2.1
2757.236	2.1
2760.725	0.1
2764.211	2.1
2767.695	2.1
2771.175	0.1
2774.652	3.1
2778.127	1.1
2781.598	1.1
2785.067	0.1
2788.532	0.1
2791.995	3.1
2795.455	-0.9
2798.911	1.1
2802.365	2.1
2805.816	2.1
2809.264	2.1
2812.709	1.1
2816.151	-0.9
2819.59	1.1
2823.026	-1.9
2826.46	0.1
2829.89	5.1
2833.318	4.1
2836.742	4.1
2840.164	10.1
2843.583	5.1
2846.999	7.1
2850.412	8.1
2853.822	7.1
2857.229	8.1
2860.634	5.1
2864.035	9.1
2867.434	12.1
2870.83	14.1
2874.223	13.1
2877.613	15.1
2881	12.1
2884.385	13.1
2887.766	17.1
2891.145	20.1
2894.521	18.1
2897.894	18.1
2901.264	17.1
2904.631	13.1
2907.996	14.1
2911.358	10.1
2914.717	10.1
2918.073	7.1
2921.426	10.1
2924.777	12.1
2928.124	9.1
2931.469	8.1
2934.811	6.1
2938.15	8.1
2941.487	4.1
2944.821	4.1
2948.152	6.1
2951.48	5.1
2954.805	9.1
2958.128	11.1
2961.447	7.1
2964.765	5.1
2968.079	11.1
2971.39	4.1
2974.699	2.1
2978.005	-0.9
2981.308	2.1
2984.609	4.1
2987.907	4.1
2991.202	4.1
2994.494	3.1
2997.784	3.1
3001.07	2.1
3004.355	-2.9
3007.636	3.1
3010.915	0.1
3014.191	2.1
3017.464	-1.9
3020.734	5.1
3024.002	1.1
3027.267	6.1
3030.53	3.1
3033.789	1.1
3037.046	-3.9
3040.301	1.1
3043.552	0.1
3046.801	4.1
3050.048	3.1
3053.291	2.1
3056.532	1.1
3059.771	1.1
3063.006	-0.9
3066.239	-3.9
3069.469	1.1
3072.697	1.1
3075.922	-0.9
3079.144	1.1
3082.364	4.1
3085.581	2.1
3088.795	4.1
3092.007	-1.9
3095.216	-0.9
3098.423	-0.9
3101.627	-3.9
3104.828	-0.9
3108.026	1.1
3111.222	1.1
3114.416	2.1
3117.607	4.1
3120.795	1.1
3123.98	3.1
3127.163	-0.9
3130.344	1.1
3133.521	4.1
3136.696	4.1
3139.869	6.1
3143.039	6.1
3146.206	2.1
3149.371	2.1
3152.533	2.1
3155.693	0.1
3158.85	2.1
3162.005	0.1
3165.157	1.1
3168.306	0.1
3171.453	4.1
3174.597	3.1
3177.739	4.1
3180.878	1.1
3184.014	0.1
3187.149	-1.9
3190.28	-0.9
3193.409	2.1
3196.536	5.1
3199.659	6.1
3202.781	4.1
3205.9	3.1
3209.016	-0.9
3212.13	2.1
3215.241	1.1
3218.35	2.1
3221.456	0.1
3224.56	3.1
3227.661	5.1
3230.76	6.1
3233.856	6.1
3236.95	7.1
3240.041	-1.9
3243.13	-0.9
3246.216	-1.9
3249.3	3.1
3252.382	2.1
3255.46	7.1
3258.537	3.1
3261.611	6.1
3264.682	4.1
3267.751	4.1
3270.818	-1.9
3273.882	-1.9
3276.943	1.1
3280.002	2.1
3283.059	5.1
3286.113	4.1
3289.165	0.1
3292.214	2.1
3295.261	1.1
3298.306	-0.9
3301.348	-1.9
3304.387	-1.9
3307.425	1.1
3310.459	5.1
3313.492	2.1
3316.521	5.1
3319.549	1.1
3322.574	2.1
3325.597	-3.9
3328.617	-3.9
3331.635	-0.9
3334.65	0.1
3337.663	3.1
3340.674	4.1
3343.682	3.1
3346.688	5.1
3349.691	2.1
3352.692	-0.9
3355.691	-5.9
3358.687	-6.9
3361.681	-1.9
3364.673	4.1
3367.662	2.1
3370.649	6.1
3373.633	4.1
3376.615	5.1
3379.595	-0.9
3382.572	0.1
3385.547	-1.9
3388.52	0.1
3391.49	1.1
3394.458	3.1
3397.424	1.1
3400.387	4.1
3403.348	0.1
3406.307	-0.9
3409.263	1.1
3412.217	0.1
3415.168	-0.9
3418.118	1.1
3421.065	3.1
3424.009	2.1
3426.951	1.1
3429.891	1.1
3432.829	3.1
3435.764	3.1
3438.697	-2.9
3441.628	-1.9
3444.557	-0.9
3447.483	0.1
3450.407	-0.9
3453.328	3.1
3456.247	-1.9
3459.164	1.1
3462.079	1.1
3464.991	2.1
3467.902	0.1
3470.809	0.1
3473.715	-0.9
3476.618	-0.9
3479.519	-3.9
3482.418	0.1
3485.315	-1.9
3488.209	1.1
3491.101	1.1
3493.99	-2.9
3496.878	-0.9
3499.763	2.1
3502.646	0.1
3505.527	0.1
3508.405	-1.9
3511.281	-1.9
3514.155	-2.9
3517.027	3.1
3519.897	2.1
3522.764	2.1
3525.629	1.1
3528.492	-0.9
3531.352	-1.9
3534.211	1.1
3537.067	-5.9
3539.921	-4.9
3542.773	-4.9
3545.622	0.1
3548.469	-2.9
3551.315	1.1
3554.157	0.1
3556.998	2.1
3559.837	-4.9
3562.673	-3.9
3565.507	-2.9
3568.339	0.1
3571.169	-1.9
3573.996	-0.9
3576.822	-1.9
3579.645	-0.9
3582.466	-0.9
3585.285	0.1
3588.101	-3.9
3590.916	-0.9
3593.728	-2.9
3596.538	-0.9
3599.346	-4.9
3602.152	-1.9
3604.956	-0.9
3607.757	0.1
3610.556	-0.9
3613.354	1.1
3616.149	-2.9
3618.942	-1.9
3621.732	1.1
3624.521	-0.9
3627.307	-3.9
3630.092	-3.9
3632.874	1.1
3635.654	1.1
3638.432	-1.9
3641.208	-2.9
3643.982	3.1
3646.753	-1.9
3649.523	-3.9
3652.29	-0.9
3655.055	-0.9
3657.818	-0.9
3660.579	3.1
3663.338	0.1
3666.095	0.1
3668.849	1.1
3671.602	-2.9
3674.352	3.1
3677.101	-3.9
3679.847	-4.9
3682.591	-1.9
3685.333	-0.9
3688.073	-0.9
3690.811	2.1
3693.547	2.1
3696.281	-0.9
3699.013	-0.9
3701.742	-3.9
3704.47	-5.9
3707.195	-3.9
3709.919	-2.9
3712.64	-0.9
3715.359	0.1
3718.076	2.1
3720.792	-0.9
3723.505	0.1
3726.216	1.1
3728.925	-2.9
3731.632	-3.9
3734.336	-4.9
3737.039	-1.9
3739.74	0.1
3742.439	-0.9
3745.136	1.1
3747.83	-0.9
3750.523	-0.9
3753.213	-2.9
3755.902	0.1
3758.589	-1.9
3761.273	-0.9
3763.956	-3.9
3766.636	-0.9
3769.315	-1.9
3771.991	-2.9
3774.665	2.1
3777.338	0.1
3780.008	0.1
3782.677	-1.9
3785.343	-5.9
3788.007	-2.9
3790.67	-2.9
3793.33	-1.9
3795.989	-3.9
3798.645	-2.9
3801.299	-0.9
3803.952	0.1
3806.602	-0.9
3809.251	0.1
3811.897	-1.9
3814.542	0.1
3817.184	-1.9
3819.825	-3.9
3822.463	-4.9
3825.1	0.1
3827.735	1.1
3830.367	5.1
3832.998	-0.9
3835.627	2.1
3838.253	-1.9
3840.878	-5.9
3843.501	-1.9
3846.122	-1.9
3848.741	-3.9
3851.358	2.1
3853.973	2.1
3856.586	0.1
3859.197	-1.9
3861.806	-3.9
3864.414	-5.9
3867.019	-1.9
3869.622	-3.9
3872.224	-3.9
3874.823	0.1
3877.421	5.1
3880.016	2.1
3882.61	3.1
3885.202	4.1
3887.792	-1.9
3890.38	-0.9
3892.966	-2.9
3895.55	0.1
3898.132	2.1
3900.713	4.1
3903.291	1.1
3905.868	1.1
3908.442	-0.9
3911.015	-6.9
3913.586	-0.9
3916.155	-0.9
3918.722	-1.9
3921.287	-0.9
3923.85	0.1
3926.411	-0.9
3928.971	-1.9
3931.528	1.1
3934.084	-1.9
3936.638	-3.9
3939.19	-4.9
3941.74	-3.9
3944.288	-2.9
3946.834	0.1
3949.378	2.1
3951.921	-0.9
3954.462	-0.9
3957	-5.9
3959.537	1.1
3962.072	-0.9
3964.606	-1.9
3967.137	-2.9
3969.667	0.1
3972.194	0.1
3974.72	-0.9
3977.244	-1.9
3979.766	0.1
3982.286	-2.9
3984.805	-1.9
3987.321	-2.9
3989.836	-4.9
3992.349	-0.9
3994.86	-0.9
3997.369	-0.9
3999.877	-0.9
4002.382	-4.9
4004.886	-5.9
4007.388	-4.9
4009.888	-4.9
4012.386	-2.9
4014.883	-3.9
4017.377	-0.9
4019.87	-1.9
4022.361	-1.9
4024.85	-2.9
4027.338	-3.9
4029.823	-2.9
4032.307	-0.9
4034.789	-3.9
4037.269	-1.9
4039.747	-1.9
4042.224	-0.9
4044.699	-3.9
4047.172	0.1
4049.643	-2.9
4052.112	-3.9
4054.58	-0.9
4057.046	-3.9
4059.51	-1.9
4061.972	1.1
4064.432	1.1
4066.891	-1.9
4069.348	2.1
4071.803	-2.9
4074.256	-2.9
4076.708	1.1
4079.158	0.1
4081.606	-3.9
4084.052	2.1
4086.497	-2.9
4088.939	1.1
4091.38	1.1
4093.819	1.1
4096.257	-4.9
4098.693	-5.9
4101.127	-3.9
4103.559	1.1
4105.989	4.1
4108.418	2.1
4110.845	4.1
4113.27	2.1
4115.694	1.1
4118.115	3.1
4120.535	-1.9
4122.954	-0.9
4125.37	-3.9
4127.785	-4.9
4130.198	-2.9
4132.609	0.1
4135.019	-1.9
4137.427	-1.9
4139.833	-1.9
4142.237	-3.9
