Data from 1_n=5_RamanShift_01.txt Node
Date: Mon Mar 19 12:27:38 IST 2018
User: aro
Spectrometer: QEPB0276
Trigger mode: 0
Integration Time (sec): 5.000000E0
Scans to average: 1
Electric dark correction enabled: true
Nonlinearity correction enabled: false
Boxcar width: 0
XAxis mode: Raman Shifts
Number of Pixels in Spectrum: 1044
>>>>>Begin Spectral Data<<<<<
160.701	0.9
166.742	-0.1
172.777	1.9
178.805	9.9
184.826	17.9
190.841	36.9
196.849	60.9
202.85	69.9
208.845	75.9
214.833	79.9
220.815	77.9
226.789	80.9
232.758	76.9
238.719	76.9
244.674	79.9
250.623	85.9
256.565	81.9
262.5	81.9
268.429	84.9
274.351	81.9
280.267	85.9
286.176	83.9
292.079	89.9
297.975	84.9
303.865	86.9
309.748	84.9
315.625	88.9
321.495	86.9
327.359	82.9
333.217	87.9
339.068	87.9
344.912	88.9
350.751	90.9
356.583	91.9
362.408	89.9
368.227	95.9
374.04	96.9
379.847	95.9
385.647	99.9
391.44	104.9
397.228	105.9
403.009	110.9
408.784	103.9
414.553	117.9
420.315	132.9
426.071	133.9
431.821	116.9
437.565	99.9
443.302	91.9
449.033	99.9
454.758	94.9
460.477	90.9
466.189	96.9
471.896	88.9
477.596	92.9
483.29	90.9
488.978	79.9
494.66	82.9
500.335	84.9
506.005	77.9
511.668	68.9
517.325	64.9
522.977	58.9
528.622	58.9
534.261	54.9
539.894	50.9
545.521	45.9
551.141	47.9
556.756	43.9
562.365	44.9
567.968	42.9
573.565	45.9
579.155	42.9
584.74	41.9
590.319	42.9
595.892	45.9
601.459	44.9
607.02	42.9
612.575	41.9
618.124	43.9
623.667	44.9
629.204	37.9
634.735	36.9
640.261	41.9
645.781	40.9
651.294	48.9
656.802	47.9
662.304	37.9
667.8	37.9
673.29	34.9
678.775	39.9
684.254	34.9
689.726	33.9
695.193	35.9
700.655	33.9
706.11	35.9
711.56	31.9
717.004	32.9
722.442	35.9
727.874	33.9
733.301	28.9
738.722	39.9
744.137	32.9
749.547	32.9
754.951	34.9
760.349	38.9
765.741	35.9
771.128	36.9
776.509	37.9
781.885	41.9
787.254	37.9
792.618	36.9
797.977	38.9
803.33	39.9
808.677	43.9
814.019	44.9
819.355	49.9
824.686	41.9
830.011	39.9
835.33	39.9
840.644	42.9
845.952	41.9
851.255	36.9
856.552	37.9
861.844	32.9
867.13	30.9
872.41	31.9
877.686	28.9
882.955	28.9
888.219	28.9
893.478	26.9
898.731	31.9
903.979	26.9
909.221	32.9
914.458	27.9
919.69	28.9
924.916	24.9
930.136	28.9
935.351	26.9
940.561	29.9
945.766	29.9
950.965	24.9
956.158	24.9
961.347	22.9
966.529	32.9
971.707	23.9
976.879	26.9
982.046	31.9
987.208	27.9
992.364	25.9
997.515	26.9
1002.66	28.9
1007.801	26.9
1012.936	24.9
1018.066	25.9
1023.19	27.9
1028.309	28.9
1033.423	27.9
1038.532	31.9
1043.636	32.9
1048.734	32.9
1053.827	27.9
1058.915	24.9
1063.998	23.9
1069.075	25.9
1074.147	24.9
1079.214	25.9
1084.276	29.9
1089.333	29.9
1094.385	23.9
1099.431	26.9
1104.472	23.9
1109.509	25.9
1114.54	18.9
1119.565	21.9
1124.586	25.9
1129.602	23.9
1134.613	23.9
1139.618	24.9
1144.619	25.9
1149.614	27.9
1154.604	27.9
1159.589	33.9
1164.57	32.9
1169.545	32.9
1174.515	30.9
1179.48	26.9
1184.44	26.9
1189.395	22.9
1194.345	25.9
1199.29	22.9
1204.23	25.9
1209.165	20.9
1214.095	23.9
1219.021	23.9
1223.941	30.9
1228.856	24.9
1233.766	26.9
1238.672	21.9
1243.572	21.9
1248.467	18.9
1253.358	19.9
1258.244	19.9
1263.124	22.9
1268	16.9
1272.871	23.9
1277.737	21.9
1282.599	20.9
1287.455	20.9
1292.306	20.9
1297.153	16.9
1301.995	19.9
1306.832	20.9
1311.664	21.9
1316.491	22.9
1321.314	24.9
1326.132	28.9
1330.945	25.9
1335.753	29.9
1340.556	23.9
1345.354	18.9
1350.148	25.9
1354.937	20.9
1359.722	21.9
1364.501	22.9
1369.276	24.9
1374.046	22.9
1378.811	18.9
1383.572	14.9
1388.327	18.9
1393.079	16.9
1397.825	19.9
1402.567	16.9
1407.304	18.9
1412.036	21.9
1416.764	14.9
1421.487	19.9
1426.205	16.9
1430.919	21.9
1435.628	18.9
1440.333	24.9
1445.032	25.9
1449.727	21.9
1454.418	29.9
1459.104	32.9
1463.785	30.9
1468.462	27.9
1473.134	26.9
1477.802	17.9
1482.465	13.9
1487.123	17.9
1491.777	18.9
1496.426	21.9
1501.071	18.9
1505.711	21.9
1510.347	15.9
1514.978	16.9
1519.604	17.9
1524.226	11.9
1528.844	14.9
1533.457	12.9
1538.065	19.9
1542.669	14.9
1547.269	16.9
1551.864	11.9
1556.454	18.9
1561.041	12.9
1565.622	11.9
1570.199	13.9
1574.772	7.9
1579.34	13.9
1583.904	16.9
1588.464	14.9
1593.019	11.9
1597.569	12.9
1602.115	16.9
1606.657	13.9
1611.195	17.9
1615.728	16.9
1620.256	14.9
1624.78	14.9
1629.3	10.9
1633.816	10.9
1638.327	16.9
1642.834	13.9
1647.336	11.9
1651.834	10.9
1656.328	13.9
1660.817	13.9
1665.302	16.9
1669.783	11.9
1674.259	9.9
1678.732	12.9
1683.199	12.9
1687.663	14.9
1692.122	12.9
1696.577	13.9
1701.028	15.9
1705.474	10.9
1709.917	14.9
1714.355	11.9
1718.788	12.9
1723.218	9.9
1727.643	9.9
1732.064	12.9
1736.481	10.9
1740.893	7.9
1745.301	12.9
1749.705	13.9
1754.105	12.9
1758.501	6.9
1762.893	10.9
1767.28	6.9
1771.663	13.9
1776.042	5.9
1780.417	11.9
1784.787	13.9
1789.154	8.9
1793.516	10.9
1797.874	10.9
1802.228	8.9
1806.578	4.9
1810.924	7.9
1815.266	10.9
1819.603	9.9
1823.937	12.9
1828.266	9.9
1832.591	9.9
1836.913	6.9
1841.23	6.9
1845.543	7.9
1849.852	3.9
1854.156	6.9
1858.457	10.9
1862.754	11.9
1867.047	10.9
1871.335	12.9
1875.62	11.9
1879.9	7.9
1884.177	8.9
1888.449	2.9
1892.718	9.9
1896.982	9.9
1901.243	11.9
1905.499	11.9
1909.752	8.9
1914	11.9
1918.245	3.9
1922.485	3.9
1926.722	9.9
1930.954	2.9
1935.183	9.9
1939.408	7.9
1943.628	10.9
1947.845	8.9
1952.058	12.9
1956.267	6.9
1960.472	8.9
1964.673	7.9
1968.87	6.9
1973.063	8.9
1977.252	6.9
1981.438	8.9
1985.619	8.9
1989.797	1.9
1993.971	3.9
1998.14	6.9
2002.306	5.9
2006.469	5.9
2010.627	7.9
2014.781	8.9
2018.932	7.9
2023.078	4.9
2027.221	6.9
2031.36	5.9
2035.495	6.9
2039.627	4.9
2043.754	3.9
2047.878	8.9
2051.998	7.9
2056.114	5.9
2060.226	8.9
2064.334	2.9
2068.439	5.9
2072.54	4.9
2076.637	4.9
2080.73	7.9
2084.82	8.9
2088.906	9.9
2092.988	8.9
2097.066	6.9
2101.14	8.9
2105.211	5.9
2109.278	4.9
2113.342	4.9
2117.401	4.9
2121.457	6.9
2125.509	11.9
2129.558	3.9
2133.602	8.9
2137.643	2.9
2141.681	1.9
2145.714	0.9
2149.744	6.9
2153.77	3.9
2157.793	9.9
2161.812	7.9
2165.827	8.9
2169.838	4.9
2173.846	1.9
2177.851	2.9
2181.851	1.9
2185.848	4.9
2189.841	6.9
2193.831	3.9
2197.817	8.9
2201.799	8.9
2205.778	0.9
2209.753	2.9
2213.725	1.9
2217.693	2.9
2221.657	0.9
2225.618	4.9
2229.575	4.9
2233.529	4.9
2237.479	4.9
2241.425	2.9
2245.368	5.9
2249.307	-1.1
2253.243	4.9
2257.175	-0.1
2261.104	4.9
2265.029	4.9
2268.95	4.9
2272.868	3.9
2276.783	1.9
2280.694	3.9
2284.601	5.9
2288.505	1.9
2292.405	1.9
2296.302	0.9
2300.195	5.9
2304.085	0.9
2307.971	2.9
2311.854	1.9
2315.734	4.9
2319.609	4.9
2323.482	0.9
2327.351	3.9
2331.216	4.9
2335.078	2.9
2338.937	2.9
2342.792	-1.1
2346.643	-0.1
2350.492	3.9
2354.336	1.9
2358.178	5.9
2362.015	4.9
2365.85	1.9
2369.681	2.9
2373.508	0.9
2377.333	1.9
2381.153	0.9
2384.971	1.9
2388.785	4.9
2392.595	3.9
2396.402	3.9
2400.206	1.9
2404.007	1.9
2407.804	-2.1
2411.597	3.9
2415.388	0.9
2419.174	1.9
2422.958	5.9
2426.738	-0.1
2430.515	6.9
2434.289	-0.1
2438.059	-0.1
2441.825	-4.1
2445.589	-1.1
2449.349	0.9
2453.106	3.9
2456.859	4.9
2460.61	6.9
2464.356	5.9
2468.1	3.9
2471.84	0.9
2475.577	0.9
2479.311	-2.1
2483.041	3.9
2486.768	-1.1
2490.492	1.9
2494.213	0.9
2497.93	2.9
2501.644	3.9
2505.355	0.9
2509.062	-3.1
2512.766	0.9
2516.467	-1.1
2520.165	0.9
2523.859	-0.1
2527.551	2.9
2531.239	3.9
2534.923	-0.1
2538.605	-0.1
2542.283	-5.1
2545.958	2.9
2549.63	0.9
2553.299	3.9
2556.964	3.9
2560.626	3.9
2564.285	-2.1
2567.941	0.9
2571.594	-3.1
2575.243	-3.1
2578.89	2.9
2582.533	-1.1
2586.173	0.9
2589.809	1.9
2593.443	4.9
2597.073	3.9
2600.701	-1.1
2604.325	-1.1
2607.946	1.9
2611.564	-0.1
2615.178	1.9
2618.79	-0.1
2622.398	1.9
2626.004	0.9
2629.606	1.9
2633.205	0.9
2636.801	0.9
2640.394	-1.1
2643.983	0.9
2647.57	3.9
2651.153	2.9
2654.734	1.9
2658.311	1.9
2661.885	1.9
2665.456	-0.1
2669.025	2.9
2672.589	2.9
2676.151	1.9
2679.71	2.9
2683.266	-1.1
2686.819	4.9
2690.368	0.9
2693.915	1.9
2697.458	1.9
2700.999	1.9
2704.536	3.9
2708.071	2.9
2711.602	1.9
2715.13	-0.1
2718.656	-3.1
2722.178	0.9
2725.697	-1.1
2729.214	3.9
2732.727	-0.1
2736.237	4.9
2739.744	2.9
2743.249	6.9
2746.75	1.9
2750.248	-1.1
2753.743	-1.1
2757.236	-1.1
2760.725	1.9
2764.211	2.9
2767.695	1.9
2771.175	4.9
2774.652	1.9
2778.127	-3.1
2781.598	-0.1
2785.067	-0.1
2788.532	-2.1
2791.995	-0.1
2795.455	1.9
2798.911	0.9
2802.365	-0.1
2805.816	2.9
2809.264	1.9
2812.709	0.9
2816.151	-0.1
2819.59	-0.1
2823.026	-0.1
2826.46	1.9
2829.89	5.9
2833.318	2.9
2836.742	2.9
2840.164	8.9
2843.583	7.9
2846.999	5.9
2850.412	2.9
2853.822	4.9
2857.229	10.9
2860.634	4.9
2864.035	5.9
2867.434	11.9
2870.83	10.9
2874.223	12.9
2877.613	10.9
2881	7.9
2884.385	7.9
2887.766	14.9
2891.145	15.9
2894.521	15.9
2897.894	14.9
2901.264	12.9
2904.631	9.9
2907.996	10.9
2911.358	8.9
2914.717	8.9
2918.073	5.9
2921.426	8.9
2924.777	10.9
2928.124	9.9
2931.469	7.9
2934.811	5.9
2938.15	5.9
2941.487	3.9
2944.821	3.9
2948.152	3.9
2951.48	2.9
2954.805	8.9
2958.128	9.9
2961.447	6.9
2964.765	8.9
2968.079	12.9
2971.39	4.9
2974.699	2.9
2978.005	-2.1
2981.308	1.9
2984.609	-2.1
2987.907	1.9
2991.202	3.9
2994.494	2.9
2997.784	4.9
3001.07	2.9
3004.355	0.9
3007.636	1.9
3010.915	-0.1
3014.191	0.9
3017.464	-1.1
3020.734	2.9
3024.002	2.9
3027.267	5.9
3030.53	0.9
3033.789	-1.1
3037.046	-4.1
3040.301	-2.1
3043.552	-3.1
3046.801	0.9
3050.048	0.9
3053.291	1.9
3056.532	1.9
3059.771	8.9
3063.006	0.9
3066.239	-2.1
3069.469	-0.1
3072.697	0.9
3075.922	-4.1
3079.144	1.9
3082.364	0.9
3085.581	0.9
3088.795	2.9
3092.007	1.9
3095.216	1.9
3098.423	0.9
3101.627	-5.1
3104.828	1.9
3108.026	-2.1
3111.222	-0.1
3114.416	0.9
3117.607	4.9
3120.795	-2.1
3123.98	3.9
3127.163	3.9
3130.344	0.9
3133.521	3.9
3136.696	-1.1
3139.869	3.9
3143.039	4.9
3146.206	2.9
3149.371	-0.1
3152.533	4.9
3155.693	-1.1
3158.85	0.9
3162.005	1.9
3165.157	-0.1
3168.306	2.9
3171.453	-1.1
3174.597	1.9
3177.739	0.9
3180.878	2.9
3184.014	0.9
3187.149	-1.1
3190.28	-0.1
3193.409	1.9
3196.536	-0.1
3199.659	3.9
3202.781	-0.1
3205.9	2.9
3209.016	0.9
3212.13	0.9
3215.241	-0.1
3218.35	4.9
3221.456	-1.1
3224.56	1.9
3227.661	-1.1
3230.76	3.9
3233.856	0.9
3236.95	3.9
3240.041	-3.1
3243.13	-1.1
3246.216	2.9
3249.3	2.9
3252.382	2.9
3255.46	2.9
3258.537	2.9
3261.611	4.9
3264.682	0.9
3267.751	1.9
3270.818	-1.1
3273.882	1.9
3276.943	2.9
3280.002	0.9
3283.059	1.9
3286.113	3.9
3289.165	-1.1
3292.214	-0.1
3295.261	-2.1
3298.306	-3.1
3301.348	0.9
3304.387	-0.1
3307.425	0.9
3310.459	5.9
3313.492	-1.1
3316.521	2.9
3319.549	0.9
3322.574	0.9
3325.597	-2.1
3328.617	-2.1
3331.635	-2.1
3334.65	-1.1
3337.663	1.9
3340.674	3.9
3343.682	2.9
3346.688	2.9
3349.691	-0.1
3352.692	-0.1
3355.691	-4.1
3358.687	-8.1
3361.681	-2.1
3364.673	2.9
3367.662	-1.1
3370.649	6.9
3373.633	2.9
3376.615	4.9
3379.595	-3.1
3382.572	0.9
3385.547	-2.1
3388.52	-1.1
3391.49	1.9
3394.458	1.9
3397.424	1.9
3400.387	3.9
3403.348	-1.1
3406.307	0.9
3409.263	-0.1
3412.217	-0.1
3415.168	-2.1
3418.118	-3.1
3421.065	6.9
3424.009	3.9
3426.951	2.9
3429.891	-0.1
3432.829	0.9
3435.764	3.9
3438.697	-1.1
3441.628	-2.1
3444.557	0.9
3447.483	0.9
3450.407	0.9
3453.328	1.9
3456.247	-3.1
3459.164	0.9
3462.079	3.9
3464.991	-1.1
3467.902	-0.1
3470.809	0.9
3473.715	0.9
3476.618	-1.1
3479.519	-7.1
3482.418	-0.1
3485.315	-2.1
3488.209	0.9
3491.101	1.9
3493.99	-3.1
3496.878	0.9
3499.763	0.9
3502.646	-0.1
3505.527	-3.1
3508.405	-2.1
3511.281	-1.1
3514.155	-1.1
3517.027	0.9
3519.897	-0.1
3522.764	0.9
3525.629	-0.1
3528.492	0.9
3531.352	-2.1
3534.211	-3.1
3537.067	-7.1
3539.921	-5.1
3542.773	-2.1
3545.622	5.9
3548.469	-0.1
3551.315	2.9
3554.157	-0.1
3556.998	-2.1
3559.837	-5.1
3562.673	-5.1
3565.507	-4.1
3568.339	-0.1
3571.169	0.9
3573.996	-0.1
3576.822	-2.1
3579.645	0.9
3582.466	-3.1
3585.285	0.9
3588.101	-5.1
3590.916	-1.1
3593.728	-3.1
3596.538	-2.1
3599.346	-2.1
3602.152	-0.1
3604.956	-2.1
3607.757	-2.1
3610.556	-3.1
3613.354	-1.1
3616.149	-6.1
3618.942	-3.1
3621.732	0.9
3624.521	1.9
3627.307	-0.1
3630.092	-1.1
3632.874	-4.1
3635.654	-1.1
3638.432	-5.1
3641.208	-6.1
3643.982	-1.1
3646.753	-0.1
3649.523	-6.1
3652.29	-1.1
3655.055	-3.1
3657.818	-3.1
3660.579	-1.1
3663.338	-4.1
3666.095	-3.1
3668.849	0.9
3671.602	-1.1
3674.352	2.9
3677.101	-0.1
3679.847	-2.1
3682.591	-2.1
3685.333	-1.1
3688.073	-3.1
3690.811	1.9
3693.547	-1.1
3696.281	-2.1
3699.013	-4.1
3701.742	-4.1
3704.47	-3.1
3707.195	-1.1
3709.919	-2.1
3712.64	-2.1
3715.359	-0.1
3718.076	-0.1
3720.792	-1.1
3723.505	-0.1
3726.216	-4.1
3728.925	0.9
3731.632	1.9
3734.336	-3.1
3737.039	-0.1
3739.74	-1.1
3742.439	-3.1
3745.136	-1.1
3747.83	-5.1
3750.523	-3.1
3753.213	-5.1
3755.902	1.9
3758.589	-2.1
3761.273	0.9
3763.956	-1.1
3766.636	-4.1
3769.315	-5.1
3771.991	-4.1
3774.665	-4.1
3777.338	0.9
3780.008	-0.1
3782.677	-1.1
3785.343	-1.1
3788.007	0.9
3790.67	-2.1
3793.33	-3.1
3795.989	-5.1
3798.645	-5.1
3801.299	-2.1
3803.952	-1.1
3806.602	1.9
3809.251	1.9
3811.897	-2.1
3814.542	-1.1
3817.184	-3.1
3819.825	-5.1
3822.463	-7.1
3825.1	-3.1
3827.735	-3.1
3830.367	1.9
3832.998	-0.1
3835.627	2.9
3838.253	0.9
3840.878	-5.1
3843.501	-3.1
3846.122	-5.1
3848.741	-5.1
3851.358	-1.1
3853.973	1.9
3856.586	-0.1
3859.197	2.9
3861.806	-2.1
3864.414	-5.1
3867.019	-5.1
3869.622	-7.1
3872.224	-5.1
3874.823	-0.1
3877.421	1.9
3880.016	-0.1
3882.61	0.9
3885.202	4.9
3887.792	1.9
3890.38	-2.1
3892.966	-2.1
3895.55	-2.1
3898.132	-1.1
3900.713	-1.1
3903.291	-0.1
3905.868	-1.1
3908.442	0.9
3911.015	-4.1
3913.586	-2.1
3916.155	-4.1
3918.722	-3.1
3921.287	-2.1
3923.85	2.9
3926.411	-0.1
3928.971	-4.1
3931.528	-1.1
3934.084	-2.1
3936.638	-3.1
3939.19	-3.1
3941.74	-2.1
3944.288	-4.1
3946.834	-0.1
3949.378	2.9
3951.921	-1.1
3954.462	-1.1
3957	-4.1
3959.537	0.9
3962.072	-1.1
3964.606	-1.1
3967.137	-2.1
3969.667	0.9
3972.194	-4.1
3974.72	-0.1
3977.244	-3.1
3979.766	1.9
3982.286	-7.1
3984.805	-0.1
3987.321	-3.1
3989.836	-2.1
3992.349	-0.1
3994.86	-0.1
3997.369	-4.1
3999.877	0.9
4002.382	-1.1
4004.886	-2.1
4007.388	-1.1
4009.888	-4.1
4012.386	-3.1
4014.883	-3.1
4017.377	-2.1
4019.87	-2.1
4022.361	2.9
4024.85	-3.1
4027.338	-1.1
4029.823	-1.1
4032.307	-2.1
4034.789	-4.1
4037.269	-4.1
4039.747	-3.1
4042.224	-0.1
4044.699	-1.1
4047.172	-0.1
4049.643	-2.1
4052.112	-3.1
4054.58	-2.1
4057.046	0.9
4059.51	-4.1
4061.972	-1.1
4064.432	-3.1
4066.891	-2.1
4069.348	-0.1
4071.803	-1.1
4074.256	-5.1
4076.708	-0.1
4079.158	0.9
4081.606	-6.1
4084.052	-0.1
4086.497	-2.1
4088.939	0.9
4091.38	-0.1
4093.819	1.9
4096.257	-3.1
4098.693	-2.1
4101.127	-1.1
4103.559	-1.1
4105.989	3.9
4108.418	2.9
4110.845	3.9
4113.27	0.9
4115.694	-0.1
4118.115	3.9
4120.535	-4.1
4122.954	-3.1
4125.37	-4.1
4127.785	-5.1
4130.198	-2.1
4132.609	-3.1
4135.019	-3.1
4137.427	-3.1
4139.833	-3.1
4142.237	-3.1
