Data from 2_n=4_RamanShift_02.txt Node
Date: Mon Mar 19 12:32:13 IST 2018
User: aro
Spectrometer: QEPB0276
Trigger mode: 0
Integration Time (sec): 5.000000E0
Scans to average: 1
Electric dark correction enabled: true
Nonlinearity correction enabled: false
Boxcar width: 0
XAxis mode: Raman Shifts
Number of Pixels in Spectrum: 1044
>>>>>Begin Spectral Data<<<<<
160.701	0.2
166.742	4.2
172.777	2.2
178.805	15.2
184.826	22.2
190.841	43.2
196.849	73.2
202.85	88.2
208.845	101.2
214.833	103.2
220.815	106.2
226.789	107.2
232.758	104.2
238.719	107.2
244.674	108.2
250.623	107.2
256.565	103.2
262.5	104.2
268.429	110.2
274.351	109.2
280.267	116.2
286.176	116.2
292.079	113.2
297.975	114.2
303.865	112.2
309.748	111.2
315.625	111.2
321.495	120.2
327.359	120.2
333.217	118.2
339.068	121.2
344.912	120.2
350.751	120.2
356.583	118.2
362.408	118.2
368.227	119.2
374.04	120.2
379.847	128.2
385.647	129.2
391.44	134.2
397.228	134.2
403.009	131.2
408.784	135.2
414.553	141.2
420.315	155.2
426.071	161.2
431.821	148.2
437.565	136.2
443.302	122.2
449.033	122.2
454.758	125.2
460.477	121.2
466.189	123.2
471.896	113.2
477.596	111.2
483.29	116.2
488.978	117.2
494.66	111.2
500.335	110.2
506.005	104.2
511.668	95.2
517.325	86.2
522.977	78.2
528.622	82.2
534.261	76.2
539.894	76.2
545.521	76.2
551.141	73.2
556.756	68.2
562.365	68.2
567.968	68.2
573.565	69.2
579.155	61.2
584.74	66.2
590.319	65.2
595.892	71.2
601.459	67.2
607.02	66.2
612.575	65.2
618.124	68.2
623.667	63.2
629.204	61.2
634.735	61.2
640.261	68.2
645.781	70.2
651.294	71.2
656.802	73.2
662.304	66.2
667.8	60.2
673.29	55.2
678.775	57.2
684.254	56.2
689.726	52.2
695.193	58.2
700.655	62.2
706.11	59.2
711.56	59.2
717.004	55.2
722.442	54.2
727.874	50.2
733.301	53.2
738.722	48.2
744.137	51.2
749.547	56.2
754.951	59.2
760.349	57.2
765.741	58.2
771.128	62.2
776.509	52.2
781.885	56.2
787.254	56.2
792.618	55.2
797.977	59.2
803.33	63.2
808.677	67.2
814.019	66.2
819.355	68.2
824.686	62.2
830.011	52.2
835.33	56.2
840.644	59.2
845.952	59.2
851.255	59.2
856.552	57.2
861.844	54.2
867.13	51.2
872.41	53.2
877.686	46.2
882.955	41.2
888.219	45.2
893.478	49.2
898.731	45.2
903.979	45.2
909.221	51.2
914.458	46.2
919.69	43.2
924.916	46.2
930.136	40.2
935.351	42.2
940.561	43.2
945.766	46.2
950.965	46.2
956.158	47.2
961.347	47.2
966.529	48.2
971.707	39.2
976.879	42.2
982.046	43.2
987.208	40.2
992.364	43.2
997.515	41.2
1002.66	47.2
1007.801	49.2
1012.936	41.2
1018.066	43.2
1023.19	41.2
1028.309	39.2
1033.423	45.2
1038.532	45.2
1043.636	48.2
1048.734	45.2
1053.827	47.2
1058.915	39.2
1063.998	42.2
1069.075	38.2
1074.147	38.2
1079.214	35.2
1084.276	40.2
1089.333	43.2
1094.385	40.2
1099.431	45.2
1104.472	41.2
1109.509	39.2
1114.54	38.2
1119.565	34.2
1124.586	38.2
1129.602	33.2
1134.613	40.2
1139.618	40.2
1144.619	43.2
1149.614	43.2
1154.604	44.2
1159.589	48.2
1164.57	43.2
1169.545	40.2
1174.515	40.2
1179.48	41.2
1184.44	39.2
1189.395	40.2
1194.345	41.2
1199.29	42.2
1204.23	40.2
1209.165	36.2
1214.095	33.2
1219.021	35.2
1223.941	37.2
1228.856	37.2
1233.766	39.2
1238.672	39.2
1243.572	36.2
1248.467	37.2
1253.358	34.2
1258.244	38.2
1263.124	32.2
1268	32.2
1272.871	31.2
1277.737	34.2
1282.599	33.2
1287.455	37.2
1292.306	33.2
1297.153	35.2
1301.995	30.2
1306.832	31.2
1311.664	31.2
1316.491	35.2
1321.314	35.2
1326.132	37.2
1330.945	40.2
1335.753	44.2
1340.556	38.2
1345.354	34.2
1350.148	33.2
1354.937	26.2
1359.722	29.2
1364.501	31.2
1369.276	33.2
1374.046	36.2
1378.811	28.2
1383.572	25.2
1388.327	27.2
1393.079	28.2
1397.825	25.2
1402.567	25.2
1407.304	23.2
1412.036	26.2
1416.764	22.2
1421.487	29.2
1426.205	29.2
1430.919	31.2
1435.628	28.2
1440.333	32.2
1445.032	38.2
1449.727	32.2
1454.418	40.2
1459.104	42.2
1463.785	39.2
1468.462	39.2
1473.134	37.2
1477.802	33.2
1482.465	24.2
1487.123	26.2
1491.777	26.2
1496.426	27.2
1501.071	23.2
1505.711	27.2
1510.347	24.2
1514.978	26.2
1519.604	27.2
1524.226	24.2
1528.844	26.2
1533.457	27.2
1538.065	26.2
1542.669	23.2
1547.269	23.2
1551.864	21.2
1556.454	24.2
1561.041	23.2
1565.622	24.2
1570.199	20.2
1574.772	21.2
1579.34	22.2
1583.904	22.2
1588.464	23.2
1593.019	17.2
1597.569	21.2
1602.115	20.2
1606.657	21.2
1611.195	24.2
1615.728	24.2
1620.256	21.2
1624.78	24.2
1629.3	20.2
1633.816	19.2
1638.327	19.2
1642.834	19.2
1647.336	18.2
1651.834	19.2
1656.328	24.2
1660.817	21.2
1665.302	23.2
1669.783	19.2
1674.259	21.2
1678.732	20.2
1683.199	19.2
1687.663	17.2
1692.122	17.2
1696.577	20.2
1701.028	23.2
1705.474	20.2
1709.917	21.2
1714.355	20.2
1718.788	17.2
1723.218	17.2
1727.643	14.2
1732.064	16.2
1736.481	14.2
1740.893	15.2
1745.301	22.2
1749.705	19.2
1754.105	20.2
1758.501	17.2
1762.893	14.2
1767.28	18.2
1771.663	14.2
1776.042	11.2
1780.417	13.2
1784.787	18.2
1789.154	16.2
1793.516	22.2
1797.874	17.2
1802.228	15.2
1806.578	10.2
1810.924	16.2
1815.266	11.2
1819.603	13.2
1823.937	19.2
1828.266	16.2
1832.591	14.2
1836.913	13.2
1841.23	11.2
1845.543	11.2
1849.852	11.2
1854.156	10.2
1858.457	14.2
1862.754	20.2
1867.047	12.2
1871.335	18.2
1875.62	15.2
1879.9	13.2
1884.177	16.2
1888.449	8.2
1892.718	14.2
1896.982	11.2
1901.243	14.2
1905.499	13.2
1909.752	14.2
1914	15.2
1918.245	13.2
1922.485	14.2
1926.722	12.2
1930.954	10.2
1935.183	10.2
1939.408	13.2
1943.628	16.2
1947.845	13.2
1952.058	14.2
1956.267	11.2
1960.472	11.2
1964.673	14.2
1968.87	10.2
1973.063	12.2
1977.252	11.2
1981.438	11.2
1985.619	11.2
1989.797	5.2
1993.971	8.2
1998.14	6.2
2002.306	9.2
2006.469	13.2
2010.627	11.2
2014.781	13.2
2018.932	13.2
2023.078	9.2
2027.221	8.2
2031.36	4.2
2035.495	11.2
2039.627	11.2
2043.754	7.2
2047.878	15.2
2051.998	15.2
2056.114	13.2
2060.226	14.2
2064.334	6.2
2068.439	4.2
2072.54	5.2
2076.637	10.2
2080.73	8.2
2084.82	9.2
2088.906	12.2
2092.988	14.2
2097.066	5.2
2101.14	10.2
2105.211	8.2
2109.278	5.2
2113.342	5.2
2117.401	5.2
2121.457	8.2
2125.509	13.2
2129.558	9.2
2133.602	14.2
2137.643	5.2
2141.681	5.2
2145.714	3.2
2149.744	7.2
2153.77	5.2
2157.793	11.2
2161.812	11.2
2165.827	9.2
2169.838	5.2
2173.846	6.2
2177.851	7.2
2181.851	4.2
2185.848	8.2
2189.841	8.2
2193.831	3.2
2197.817	8.2
2201.799	7.2
2205.778	7.2
2209.753	11.2
2213.725	4.2
2217.693	7.2
2221.657	0.2
2225.618	4.2
2229.575	7.2
2233.529	6.2
2237.479	0.2
2241.425	6.2
2245.368	7.2
2249.307	5.2
2253.243	5.2
2257.175	4.2
2261.104	8.2
2265.029	5.2
2268.95	2.2
2272.868	1.2
2276.783	2.2
2280.694	6.2
2284.601	4.2
2288.505	7.2
2292.405	5.2
2296.302	5.2
2300.195	6.2
2304.085	0.2
2307.971	0.2
2311.854	0.2
2315.734	7.2
2319.609	4.2
2323.482	4.2
2327.351	4.2
2331.216	7.2
2335.078	7.2
2338.937	5.2
2342.792	-1.8
2346.643	-1.8
2350.492	1.2
2354.336	2.2
2358.178	5.2
2362.015	3.2
2365.85	7.2
2369.681	2.2
2373.508	0.2
2377.333	1.2
2381.153	0.2
2384.971	2.2
2388.785	4.2
2392.595	4.2
2396.402	3.2
2400.206	6.2
2404.007	3.2
2407.804	-1.8
2411.597	3.2
2415.388	-0.8
2419.174	6.2
2422.958	4.2
2426.738	3.2
2430.515	6.2
2434.289	3.2
2438.059	4.2
2441.825	-1.8
2445.589	0.2
2449.349	-1.8
2453.106	2.2
2456.859	1.2
2460.61	4.2
2464.356	6.2
2468.1	5.2
2471.84	3.2
2475.577	3.2
2479.311	0.2
2483.041	2.2
2486.768	0.2
2490.492	-2.8
2494.213	1.2
2497.93	-1.8
2501.644	1.2
2505.355	5.2
2509.062	0.2
2512.766	2.2
2516.467	0.2
2520.165	0.2
2523.859	2.2
2527.551	-1.8
2531.239	0.2
2534.923	2.2
2538.605	5.2
2542.283	-1.8
2545.958	4.2
2549.63	0.2
2553.299	1.2
2556.964	2.2
2560.626	1.2
2564.285	-1.8
2567.941	0.2
2571.594	-2.8
2575.243	-0.8
2578.89	3.2
2582.533	-0.8
2586.173	2.2
2589.809	2.2
2593.443	0.2
2597.073	4.2
2600.701	1.2
2604.325	-1.8
2607.946	0.2
2611.564	5.2
2615.178	5.2
2618.79	4.2
2622.398	1.2
2626.004	0.2
2629.606	-0.8
2633.205	-1.8
2636.801	1.2
2640.394	1.2
2643.983	1.2
2647.57	1.2
2651.153	5.2
2654.734	2.2
2658.311	0.2
2661.885	0.2
2665.456	-4.8
2669.025	0.2
2672.589	3.2
2676.151	3.2
2679.71	4.2
2683.266	0.2
2686.819	5.2
2690.368	0.2
2693.915	-0.8
2697.458	-2.8
2700.999	4.2
2704.536	0.2
2708.071	4.2
2711.602	3.2
2715.13	2.2
2718.656	4.2
2722.178	0.2
2725.697	-3.8
2729.214	-0.8
2732.727	-1.8
2736.237	3.2
2739.744	1.2
2743.249	7.2
2746.75	3.2
2750.248	-1.8
2753.743	1.2
2757.236	-2.8
2760.725	-3.8
2764.211	-0.8
2767.695	3.2
2771.175	-0.8
2774.652	3.2
2778.127	0.2
2781.598	1.2
2785.067	0.2
2788.532	-3.8
2791.995	-1.8
2795.455	-2.8
2798.911	-0.8
2802.365	2.2
2805.816	6.2
2809.264	3.2
2812.709	0.2
2816.151	2.2
2819.59	-3.8
2823.026	1.2
2826.46	-1.8
2829.89	1.2
2833.318	2.2
2836.742	7.2
2840.164	9.2
2843.583	6.2
2846.999	6.2
2850.412	6.2
2853.822	2.2
2857.229	5.2
2860.634	2.2
2864.035	3.2
2867.434	11.2
2870.83	10.2
2874.223	11.2
2877.613	13.2
2881	9.2
2884.385	9.2
2887.766	12.2
2891.145	13.2
2894.521	12.2
2897.894	13.2
2901.264	14.2
2904.631	12.2
2907.996	16.2
2911.358	11.2
2914.717	5.2
2918.073	7.2
2921.426	5.2
2924.777	6.2
2928.124	7.2
2931.469	4.2
2934.811	7.2
2938.15	8.2
2941.487	5.2
2944.821	4.2
2948.152	2.2
2951.48	4.2
2954.805	4.2
2958.128	5.2
2961.447	2.2
2964.765	5.2
2968.079	13.2
2971.39	5.2
2974.699	3.2
2978.005	-1.8
2981.308	0.2
2984.609	-2.8
2987.907	0.2
2991.202	2.2
2994.494	3.2
2997.784	4.2
3001.07	3.2
3004.355	1.2
3007.636	3.2
3010.915	1.2
3014.191	-0.8
3017.464	-2.8
3020.734	1.2
3024.002	-1.8
3027.267	4.2
3030.53	0.2
3033.789	1.2
3037.046	-4.8
3040.301	-1.8
3043.552	-0.8
3046.801	-1.8
3050.048	0.2
3053.291	-2.8
3056.532	1.2
3059.771	6.2
3063.006	-0.8
3066.239	-0.8
3069.469	-0.8
3072.697	-0.8
3075.922	-2.8
3079.144	-0.8
3082.364	-1.8
3085.581	-0.8
3088.795	3.2
3092.007	1.2
3095.216	-0.8
3098.423	-2.8
3101.627	-2.8
3104.828	-1.8
3108.026	-1.8
3111.222	-0.8
3114.416	-1.8
3117.607	1.2
3120.795	2.2
3123.98	2.2
3127.163	1.2
3130.344	-1.8
3133.521	0.2
3136.696	-1.8
3139.869	0.2
3143.039	1.2
3146.206	0.2
3149.371	0.2
3152.533	0.2
3155.693	-0.8
3158.85	-1.8
3162.005	3.2
3165.157	1.2
3168.306	-3.8
3171.453	2.2
3174.597	0.2
3177.739	-0.8
3180.878	-3.8
3184.014	-1.8
3187.149	-3.8
3190.28	-1.8
3193.409	0.2
3196.536	1.2
3199.659	3.2
3202.781	-0.8
3205.9	1.2
3209.016	0.2
3212.13	-2.8
3215.241	-1.8
3218.35	0.2
3221.456	-1.8
3224.56	1.2
3227.661	3.2
3230.76	2.2
3233.856	4.2
3236.95	6.2
3240.041	-2.8
3243.13	-4.8
3246.216	-3.8
3249.3	-4.8
3252.382	1.2
3255.46	4.2
3258.537	1.2
3261.611	2.2
3264.682	1.2
3267.751	-1.8
3270.818	-2.8
3273.882	-0.8
3276.943	-1.8
3280.002	-1.8
3283.059	0.2
3286.113	0.2
3289.165	-1.8
3292.214	0.2
3295.261	-1.8
3298.306	-5.8
3301.348	-2.8
3304.387	-3.8
3307.425	-0.8
3310.459	2.2
3313.492	0.2
3316.521	0.2
3319.549	-1.8
3322.574	-1.8
3325.597	-4.8
3328.617	-6.8
3331.635	-2.8
3334.65	-1.8
3337.663	0.2
3340.674	1.2
3343.682	1.2
3346.688	3.2
3349.691	0.2
3352.692	-1.8
3355.691	-4.8
3358.687	-9.8
3361.681	-1.8
3364.673	3.2
3367.662	-2.8
3370.649	3.2
3373.633	0.2
3376.615	0.2
3379.595	-2.8
3382.572	-2.8
3385.547	-5.8
3388.52	-3.8
3391.49	-0.8
3394.458	-2.8
3397.424	-1.8
3400.387	1.2
3403.348	-3.8
3406.307	-2.8
3409.263	0.2
3412.217	1.2
3415.168	-3.8
3418.118	-2.8
3421.065	3.2
3424.009	-4.8
3426.951	-1.8
3429.891	-1.8
3432.829	-2.8
3435.764	-0.8
3438.697	-5.8
3441.628	-4.8
3444.557	-1.8
3447.483	-2.8
3450.407	-1.8
3453.328	3.2
3456.247	-6.8
3459.164	-1.8
3462.079	-0.8
3464.991	0.2
3467.902	-2.8
3470.809	1.2
3473.715	-1.8
3476.618	-3.8
3479.519	-5.8
3482.418	-3.8
3485.315	-3.8
3488.209	-1.8
3491.101	0.2
3493.99	-5.8
3496.878	-1.8
3499.763	-2.8
3502.646	0.2
3505.527	-2.8
3508.405	-2.8
3511.281	-5.8
3514.155	-4.8
3517.027	-0.8
3519.897	-3.8
3522.764	-0.8
3525.629	-2.8
3528.492	0.2
3531.352	-1.8
3534.211	-2.8
3537.067	-11.8
3539.921	-6.8
3542.773	-3.8
3545.622	2.2
3548.469	0.2
3551.315	1.2
3554.157	-3.8
3556.998	1.2
3559.837	-7.8
3562.673	-9.8
3565.507	-6.8
3568.339	-5.8
3571.169	-3.8
3573.996	-0.8
3576.822	-0.8
3579.645	-0.8
3582.466	-0.8
3585.285	-2.8
3588.101	-4.8
3590.916	-0.8
3593.728	-4.8
3596.538	-4.8
3599.346	-2.8
3602.152	-2.8
3604.956	-5.8
3607.757	-2.8
3610.556	-1.8
3613.354	0.2
3616.149	-4.8
3618.942	-2.8
3621.732	-3.8
3624.521	-4.8
3627.307	-3.8
3630.092	-2.8
3632.874	-3.8
3635.654	1.2
3638.432	-4.8
3641.208	-2.8
3643.982	-0.8
3646.753	-2.8
3649.523	-8.8
3652.29	-1.8
3655.055	-7.8
3657.818	-4.8
3660.579	1.2
3663.338	-1.8
3666.095	0.2
3668.849	-0.8
3671.602	-2.8
3674.352	-0.8
3677.101	-4.8
3679.847	-7.8
3682.591	-2.8
3685.333	-3.8
3688.073	-0.8
3690.811	0.2
3693.547	-0.8
3696.281	-4.8
3699.013	-2.8
3701.742	-7.8
3704.47	-7.8
3707.195	-5.8
3709.919	-5.8
3712.64	-2.8
3715.359	0.2
3718.076	-1.8
3720.792	-2.8
3723.505	-1.8
3726.216	-9.8
3728.925	-2.8
3731.632	-3.8
3734.336	-5.8
3737.039	-0.8
3739.74	1.2
3742.439	-0.8
3745.136	-1.8
3747.83	-3.8
3750.523	-5.8
3753.213	-4.8
3755.902	-4.8
3758.589	-3.8
3761.273	-1.8
3763.956	-3.8
3766.636	-2.8
3769.315	-5.8
3771.991	-6.8
3774.665	-2.8
3777.338	-0.8
3780.008	-2.8
3782.677	-6.8
3785.343	-3.8
3788.007	-2.8
3790.67	-3.8
3793.33	-3.8
3795.989	-4.8
3798.645	-3.8
3801.299	-3.8
3803.952	-3.8
3806.602	-4.8
3809.251	-3.8
3811.897	-2.8
3814.542	-3.8
3817.184	-5.8
3819.825	-5.8
3822.463	-5.8
3825.1	-1.8
3827.735	-5.8
3830.367	-1.8
3832.998	-1.8
3835.627	1.2
3838.253	1.2
3840.878	-4.8
3843.501	-0.8
3846.122	-3.8
3848.741	-4.8
3851.358	-3.8
3853.973	-2.8
3856.586	-7.8
3859.197	-2.8
3861.806	-2.8
3864.414	-4.8
3867.019	-2.8
3869.622	-3.8
3872.224	-5.8
3874.823	-4.8
3877.421	-0.8
3880.016	-3.8
3882.61	0.2
3885.202	5.2
3887.792	1.2
3890.38	0.2
3892.966	-4.8
3895.55	-0.8
3898.132	0.2
3900.713	-3.8
3903.291	-3.8
3905.868	-2.8
3908.442	-3.8
3911.015	-4.8
3913.586	-3.8
3916.155	0.2
3918.722	-2.8
3921.287	-3.8
3923.85	-3.8
3926.411	-3.8
3928.971	-1.8
3931.528	-2.8
3934.084	-4.8
3936.638	-3.8
3939.19	-1.8
3941.74	-1.8
3944.288	-2.8
3946.834	-1.8
3949.378	-1.8
3951.921	-4.8
3954.462	-5.8
3957	-6.8
3959.537	-0.8
3962.072	0.2
3964.606	-1.8
3967.137	-3.8
3969.667	-1.8
3972.194	-4.8
3974.72	-5.8
3977.244	-4.8
3979.766	0.2
3982.286	-5.8
3984.805	-2.8
3987.321	-1.8
3989.836	-4.8
3992.349	-1.8
3994.86	0.2
3997.369	-6.8
3999.877	-6.8
4002.382	-6.8
4004.886	-5.8
4007.388	-0.8
4009.888	-3.8
4012.386	0.2
4014.883	-7.8
4017.377	-2.8
4019.87	-3.8
4022.361	-1.8
4024.85	-6.8
4027.338	-5.8
4029.823	-2.8
4032.307	2.2
4034.789	-2.8
4037.269	-1.8
4039.747	-0.8
4042.224	-2.8
4044.699	-8.8
4047.172	-5.8
4049.643	-6.8
4052.112	-4.8
4054.58	-3.8
4057.046	-0.8
4059.51	-2.8
4061.972	-0.8
4064.432	-1.8
4066.891	-5.8
4069.348	-3.8
4071.803	-6.8
4074.256	-7.8
4076.708	1.2
4079.158	0.2
4081.606	-4.8
4084.052	-1.8
4086.497	-0.8
4088.939	-2.8
4091.38	-2.8
4093.819	-4.8
4096.257	-3.8
4098.693	-4.8
4101.127	-2.8
4103.559	-0.8
4105.989	6.2
4108.418	4.2
4110.845	0.2
4113.27	1.2
4115.694	0.2
4118.115	0.2
4120.535	-4.8
4122.954	-4.8
4125.37	-5.8
4127.785	-6.8
4130.198	-2.8
4132.609	-2.8
4135.019	-3.8
4137.427	-4.8
4139.833	-7.8
4142.237	-5.8
