Data from 2_n=1_RamanShift_03.txt Node
Date: Mon Mar 19 12:28:38 IST 2018
User: aro
Spectrometer: QEPB0276
Trigger mode: 0
Integration Time (sec): 5.000000E0
Scans to average: 1
Electric dark correction enabled: true
Nonlinearity correction enabled: false
Boxcar width: 0
XAxis mode: Raman Shifts
Number of Pixels in Spectrum: 1044
>>>>>Begin Spectral Data<<<<<
160.701	1.1
166.742	0.1
172.777	2.1
178.805	11.1
184.826	24.1
190.841	41.1
196.849	67.1
202.85	89.1
208.845	92.1
214.833	95.1
220.815	96.1
226.789	98.1
232.758	95.1
238.719	100.1
244.674	102.1
250.623	100.1
256.565	95.1
262.5	98.1
268.429	95.1
274.351	102.1
280.267	106.1
286.176	101.1
292.079	108.1
297.975	106.1
303.865	102.1
309.748	104.1
315.625	101.1
321.495	105.1
327.359	107.1
333.217	110.1
339.068	109.1
344.912	113.1
350.751	113.1
356.583	112.1
362.408	107.1
368.227	112.1
374.04	112.1
379.847	116.1
385.647	121.1
391.44	129.1
397.228	124.1
403.009	128.1
408.784	125.1
414.553	131.1
420.315	138.1
426.071	154.1
431.821	135.1
437.565	118.1
443.302	113.1
449.033	116.1
454.758	113.1
460.477	115.1
466.189	111.1
471.896	106.1
477.596	103.1
483.29	103.1
488.978	99.1
494.66	104.1
500.335	108.1
506.005	93.1
511.668	88.1
517.325	81.1
522.977	75.1
528.622	69.1
534.261	69.1
539.894	63.1
545.521	63.1
551.141	67.1
556.756	66.1
562.365	61.1
567.968	59.1
573.565	64.1
579.155	60.1
584.74	62.1
590.319	55.1
595.892	62.1
601.459	56.1
607.02	60.1
612.575	55.1
618.124	64.1
623.667	60.1
629.204	54.1
634.735	53.1
640.261	54.1
645.781	55.1
651.294	61.1
656.802	62.1
662.304	59.1
667.8	54.1
673.29	53.1
678.775	48.1
684.254	49.1
689.726	47.1
695.193	50.1
700.655	48.1
706.11	52.1
711.56	48.1
717.004	50.1
722.442	47.1
727.874	48.1
733.301	47.1
738.722	47.1
744.137	46.1
749.547	49.1
754.951	47.1
760.349	45.1
765.741	51.1
771.128	53.1
776.509	50.1
781.885	54.1
787.254	48.1
792.618	52.1
797.977	53.1
803.33	53.1
808.677	55.1
814.019	58.1
819.355	58.1
824.686	52.1
830.011	45.1
835.33	50.1
840.644	46.1
845.952	50.1
851.255	49.1
856.552	51.1
861.844	47.1
867.13	46.1
872.41	42.1
877.686	40.1
882.955	37.1
888.219	39.1
893.478	37.1
898.731	40.1
903.979	41.1
909.221	49.1
914.458	43.1
919.69	43.1
924.916	36.1
930.136	32.1
935.351	39.1
940.561	39.1
945.766	42.1
950.965	41.1
956.158	42.1
961.347	42.1
966.529	41.1
971.707	39.1
976.879	34.1
982.046	37.1
987.208	33.1
992.364	40.1
997.515	35.1
1002.66	40.1
1007.801	42.1
1012.936	40.1
1018.066	38.1
1023.19	34.1
1028.309	32.1
1033.423	35.1
1038.532	40.1
1043.636	46.1
1048.734	41.1
1053.827	44.1
1058.915	32.1
1063.998	36.1
1069.075	35.1
1074.147	30.1
1079.214	32.1
1084.276	36.1
1089.333	40.1
1094.385	40.1
1099.431	40.1
1104.472	38.1
1109.509	32.1
1114.54	33.1
1119.565	28.1
1124.586	32.1
1129.602	28.1
1134.613	30.1
1139.618	36.1
1144.619	35.1
1149.614	36.1
1154.604	32.1
1159.589	35.1
1164.57	37.1
1169.545	32.1
1174.515	35.1
1179.48	31.1
1184.44	36.1
1189.395	27.1
1194.345	32.1
1199.29	34.1
1204.23	33.1
1209.165	34.1
1214.095	28.1
1219.021	32.1
1223.941	37.1
1228.856	31.1
1233.766	33.1
1238.672	33.1
1243.572	33.1
1248.467	31.1
1253.358	29.1
1258.244	35.1
1263.124	31.1
1268	30.1
1272.871	25.1
1277.737	29.1
1282.599	29.1
1287.455	25.1
1292.306	27.1
1297.153	24.1
1301.995	30.1
1306.832	26.1
1311.664	28.1
1316.491	23.1
1321.314	30.1
1326.132	28.1
1330.945	29.1
1335.753	31.1
1340.556	29.1
1345.354	26.1
1350.148	32.1
1354.937	25.1
1359.722	26.1
1364.501	30.1
1369.276	29.1
1374.046	24.1
1378.811	26.1
1383.572	20.1
1388.327	24.1
1393.079	23.1
1397.825	27.1
1402.567	22.1
1407.304	24.1
1412.036	23.1
1416.764	20.1
1421.487	23.1
1426.205	22.1
1430.919	23.1
1435.628	22.1
1440.333	27.1
1445.032	31.1
1449.727	30.1
1454.418	35.1
1459.104	34.1
1463.785	32.1
1468.462	27.1
1473.134	26.1
1477.802	21.1
1482.465	23.1
1487.123	25.1
1491.777	26.1
1496.426	25.1
1501.071	23.1
1505.711	20.1
1510.347	23.1
1514.978	20.1
1519.604	22.1
1524.226	18.1
1528.844	23.1
1533.457	23.1
1538.065	25.1
1542.669	24.1
1547.269	24.1
1551.864	18.1
1556.454	21.1
1561.041	16.1
1565.622	15.1
1570.199	19.1
1574.772	16.1
1579.34	18.1
1583.904	24.1
1588.464	22.1
1593.019	18.1
1597.569	18.1
1602.115	18.1
1606.657	18.1
1611.195	19.1
1615.728	17.1
1620.256	21.1
1624.78	22.1
1629.3	25.1
1633.816	15.1
1638.327	22.1
1642.834	20.1
1647.336	15.1
1651.834	14.1
1656.328	17.1
1660.817	20.1
1665.302	20.1
1669.783	18.1
1674.259	20.1
1678.732	18.1
1683.199	16.1
1687.663	12.1
1692.122	13.1
1696.577	13.1
1701.028	19.1
1705.474	16.1
1709.917	17.1
1714.355	17.1
1718.788	16.1
1723.218	14.1
1727.643	10.1
1732.064	12.1
1736.481	16.1
1740.893	9.1
1745.301	19.1
1749.705	15.1
1754.105	16.1
1758.501	13.1
1762.893	15.1
1767.28	11.1
1771.663	13.1
1776.042	8.1
1780.417	10.1
1784.787	13.1
1789.154	14.1
1793.516	18.1
1797.874	15.1
1802.228	13.1
1806.578	10.1
1810.924	15.1
1815.266	8.1
1819.603	8.1
1823.937	14.1
1828.266	12.1
1832.591	13.1
1836.913	11.1
1841.23	9.1
1845.543	11.1
1849.852	8.1
1854.156	7.1
1858.457	8.1
1862.754	14.1
1867.047	10.1
1871.335	14.1
1875.62	11.1
1879.9	11.1
1884.177	14.1
1888.449	9.1
1892.718	12.1
1896.982	9.1
1901.243	10.1
1905.499	10.1
1909.752	10.1
1914	12.1
1918.245	11.1
1922.485	8.1
1926.722	10.1
1930.954	10.1
1935.183	10.1
1939.408	9.1
1943.628	16.1
1947.845	10.1
1952.058	13.1
1956.267	10.1
1960.472	7.1
1964.673	8.1
1968.87	8.1
1973.063	8.1
1977.252	9.1
1981.438	7.1
1985.619	7.1
1989.797	8.1
1993.971	9.1
1998.14	5.1
2002.306	9.1
2006.469	9.1
2010.627	10.1
2014.781	9.1
2018.932	10.1
2023.078	4.1
2027.221	9.1
2031.36	5.1
2035.495	11.1
2039.627	6.1
2043.754	10.1
2047.878	9.1
2051.998	9.1
2056.114	5.1
2060.226	13.1
2064.334	3.1
2068.439	6.1
2072.54	4.1
2076.637	10.1
2080.73	8.1
2084.82	9.1
2088.906	10.1
2092.988	7.1
2097.066	3.1
2101.14	9.1
2105.211	5.1
2109.278	8.1
2113.342	8.1
2117.401	11.1
2121.457	9.1
2125.509	8.1
2129.558	6.1
2133.602	7.1
2137.643	3.1
2141.681	4.1
2145.714	6.1
2149.744	8.1
2153.77	8.1
2157.793	9.1
2161.812	6.1
2165.827	7.1
2169.838	2.1
2173.846	2.1
2177.851	3.1
2181.851	2.1
2185.848	7.1
2189.841	10.1
2193.831	5.1
2197.817	7.1
2201.799	7.1
2205.778	5.1
2209.753	3.1
2213.725	2.1
2217.693	4.1
2221.657	2.1
2225.618	4.1
2229.575	11.1
2233.529	9.1
2237.479	3.1
2241.425	1.1
2245.368	2.1
2249.307	0.1
2253.243	3.1
2257.175	0.1
2261.104	9.1
2265.029	6.1
2268.95	4.1
2272.868	5.1
2276.783	3.1
2280.694	4.1
2284.601	2.1
2288.505	2.1
2292.405	4.1
2296.302	4.1
2300.195	8.1
2304.085	4.1
2307.971	5.1
2311.854	4.1
2315.734	3.1
2319.609	0.1
2323.482	3.1
2327.351	2.1
2331.216	7.1
2335.078	2.1
2338.937	5.1
2342.792	2.1
2346.643	-0.9
2350.492	5.1
2354.336	0.1
2358.178	2.1
2362.015	1.1
2365.85	1.1
2369.681	2.1
2373.508	0.1
2377.333	2.1
2381.153	2.1
2384.971	4.1
2388.785	3.1
2392.595	5.1
2396.402	2.1
2400.206	1.1
2404.007	1.1
2407.804	-2.9
2411.597	3.1
2415.388	-1.9
2419.174	5.1
2422.958	7.1
2426.738	0.1
2430.515	5.1
2434.289	-2.9
2438.059	-0.9
2441.825	-2.9
2445.589	2.1
2449.349	-0.9
2453.106	6.1
2456.859	4.1
2460.61	4.1
2464.356	5.1
2468.1	1.1
2471.84	0.1
2475.577	-0.9
2479.311	-0.9
2483.041	3.1
2486.768	0.1
2490.492	3.1
2494.213	5.1
2497.93	0.1
2501.644	4.1
2505.355	1.1
2509.062	-1.9
2512.766	-0.9
2516.467	-0.9
2520.165	3.1
2523.859	3.1
2527.551	1.1
2531.239	3.1
2534.923	0.1
2538.605	0.1
2542.283	-1.9
2545.958	1.1
2549.63	-1.9
2553.299	0.1
2556.964	1.1
2560.626	1.1
2564.285	-2.9
2567.941	-1.9
2571.594	-0.9
2575.243	-0.9
2578.89	1.1
2582.533	1.1
2586.173	0.1
2589.809	-1.9
2593.443	2.1
2597.073	-5.9
2600.701	-2.9
2604.325	-3.9
2607.946	2.1
2611.564	2.1
2615.178	1.1
2618.79	2.1
2622.398	4.1
2626.004	1.1
2629.606	0.1
2633.205	-0.9
2636.801	0.1
2640.394	-0.9
2643.983	1.1
2647.57	3.1
2651.153	2.1
2654.734	0.1
2658.311	1.1
2661.885	-2.9
2665.456	-1.9
2669.025	-0.9
2672.589	3.1
2676.151	1.1
2679.71	1.1
2683.266	-0.9
2686.819	4.1
2690.368	-0.9
2693.915	-2.9
2697.458	-5.9
2700.999	0.1
2704.536	0.1
2708.071	3.1
2711.602	4.1
2715.13	2.1
2718.656	-2.9
2722.178	-0.9
2725.697	-3.9
2729.214	-2.9
2732.727	-1.9
2736.237	2.1
2739.744	4.1
2743.249	5.1
2746.75	2.1
2750.248	0.1
2753.743	-0.9
2757.236	-1.9
2760.725	-3.9
2764.211	-2.9
2767.695	-1.9
2771.175	-2.9
2774.652	1.1
2778.127	1.1
2781.598	2.1
2785.067	-0.9
2788.532	-2.9
2791.995	-1.9
2795.455	0.1
2798.911	1.1
2802.365	-1.9
2805.816	0.1
2809.264	0.1
2812.709	0.1
2816.151	1.1
2819.59	-0.9
2823.026	-3.9
2826.46	-0.9
2829.89	-0.9
2833.318	1.1
2836.742	-1.9
2840.164	5.1
2843.583	0.1
2846.999	2.1
2850.412	7.1
2853.822	2.1
2857.229	0.1
2860.634	-2.9
2864.035	2.1
2867.434	4.1
2870.83	3.1
2874.223	7.1
2877.613	7.1
2881	5.1
2884.385	3.1
2887.766	11.1
2891.145	8.1
2894.521	8.1
2897.894	8.1
2901.264	6.1
2904.631	3.1
2907.996	7.1
2911.358	7.1
2914.717	4.1
2918.073	4.1
2921.426	7.1
2924.777	4.1
2928.124	2.1
2931.469	6.1
2934.811	1.1
2938.15	3.1
2941.487	1.1
2944.821	2.1
2948.152	-0.9
2951.48	1.1
2954.805	5.1
2958.128	2.1
2961.447	-0.9
2964.765	2.1
2968.079	6.1
2971.39	1.1
2974.699	-1.9
2978.005	-4.9
2981.308	-0.9
2984.609	-0.9
2987.907	3.1
2991.202	2.1
2994.494	0.1
2997.784	3.1
3001.07	2.1
3004.355	-1.9
3007.636	-0.9
3010.915	-3.9
3014.191	0.1
3017.464	-2.9
3020.734	2.1
3024.002	0.1
3027.267	1.1
3030.53	-3.9
3033.789	-0.9
3037.046	-5.9
3040.301	-2.9
3043.552	-2.9
3046.801	0.1
3050.048	1.1
3053.291	2.1
3056.532	1.1
3059.771	0.1
3063.006	-1.9
3066.239	-5.9
3069.469	-2.9
3072.697	-4.9
3075.922	-3.9
3079.144	-0.9
3082.364	-0.9
3085.581	1.1
3088.795	1.1
3092.007	-1.9
3095.216	-2.9
3098.423	-4.9
3101.627	-5.9
3104.828	1.1
3108.026	-1.9
3111.222	-0.9
3114.416	3.1
3117.607	6.1
3120.795	1.1
3123.98	0.1
3127.163	-0.9
3130.344	-2.9
3133.521	-2.9
3136.696	-1.9
3139.869	2.1
3143.039	5.1
3146.206	1.1
3149.371	2.1
3152.533	0.1
3155.693	-2.9
3158.85	-1.9
3162.005	-0.9
3165.157	-5.9
3168.306	-1.9
3171.453	2.1
3174.597	2.1
3177.739	1.1
3180.878	1.1
3184.014	-1.9
3187.149	-5.9
3190.28	-7.9
3193.409	-4.9
3196.536	-4.9
3199.659	2.1
3202.781	0.1
3205.9	6.1
3209.016	1.1
3212.13	2.1
3215.241	-1.9
3218.35	0.1
3221.456	-4.9
3224.56	-3.9
3227.661	0.1
3230.76	4.1
3233.856	5.1
3236.95	6.1
3240.041	-1.9
3243.13	-3.9
3246.216	-0.9
3249.3	-2.9
3252.382	-4.9
3255.46	0.1
3258.537	-0.9
3261.611	6.1
3264.682	4.1
3267.751	1.1
3270.818	-1.9
3273.882	-2.9
3276.943	-3.9
3280.002	-2.9
3283.059	-3.9
3286.113	0.1
3289.165	-0.9
3292.214	-0.9
3295.261	0.1
3298.306	-0.9
3301.348	-2.9
3304.387	-0.9
3307.425	-2.9
3310.459	-0.9
3313.492	-0.9
3316.521	2.1
3319.549	0.1
3322.574	-0.9
3325.597	-0.9
3328.617	-3.9
3331.635	2.1
3334.65	-2.9
3337.663	-3.9
3340.674	1.1
3343.682	2.1
3346.688	1.1
3349.691	-1.9
3352.692	-0.9
3355.691	-6.9
3358.687	-6.9
3361.681	-2.9
3364.673	0.1
3367.662	-3.9
3370.649	6.1
3373.633	-0.9
3376.615	3.1
3379.595	-5.9
3382.572	1.1
3385.547	-3.9
3388.52	-5.9
3391.49	-1.9
3394.458	-0.9
3397.424	-3.9
3400.387	0.1
3403.348	-2.9
3406.307	-0.9
3409.263	-1.9
3412.217	-1.9
3415.168	-1.9
3418.118	-4.9
3421.065	1.1
3424.009	-1.9
3426.951	-0.9
3429.891	-0.9
3432.829	-0.9
3435.764	0.1
3438.697	-6.9
3441.628	-1.9
3444.557	-1.9
3447.483	-2.9
3450.407	-0.9
3453.328	2.1
3456.247	-4.9
3459.164	-1.9
3462.079	-1.9
3464.991	-1.9
3467.902	-1.9
3470.809	0.1
3473.715	-2.9
3476.618	-0.9
3479.519	-4.9
3482.418	0.1
3485.315	-1.9
3488.209	-0.9
3491.101	-2.9
3493.99	-5.9
3496.878	-2.9
3499.763	-3.9
3502.646	-2.9
3505.527	-0.9
3508.405	0.1
3511.281	0.1
3514.155	-3.9
3517.027	-0.9
3519.897	-1.9
3522.764	0.1
3525.629	-5.9
3528.492	-4.9
3531.352	-5.9
3534.211	-2.9
3537.067	-7.9
3539.921	-4.9
3542.773	-4.9
3545.622	3.1
3548.469	-2.9
3551.315	-0.9
3554.157	-4.9
3556.998	-2.9
3559.837	-7.9
3562.673	-3.9
3565.507	-1.9
3568.339	-2.9
3571.169	0.1
3573.996	-0.9
3576.822	-4.9
3579.645	-4.9
3582.466	-2.9
3585.285	-0.9
3588.101	-4.9
3590.916	-1.9
3593.728	-0.9
3596.538	-0.9
3599.346	-2.9
3602.152	-3.9
3604.956	-7.9
3607.757	-5.9
3610.556	-6.9
3613.354	-2.9
3616.149	-3.9
3618.942	-2.9
3621.732	-0.9
3624.521	-0.9
3627.307	-4.9
3630.092	-1.9
3632.874	-6.9
3635.654	-3.9
3638.432	-5.9
3641.208	-3.9
3643.982	0.1
3646.753	2.1
3649.523	-4.9
3652.29	-1.9
3655.055	-5.9
3657.818	-3.9
3660.579	-5.9
3663.338	-3.9
3666.095	-1.9
3668.849	0.1
3671.602	-2.9
3674.352	3.1
3677.101	-3.9
3679.847	-3.9
3682.591	-2.9
3685.333	-5.9
3688.073	-4.9
3690.811	-1.9
3693.547	-2.9
3696.281	-3.9
3699.013	-2.9
3701.742	-2.9
3704.47	-4.9
3707.195	-5.9
3709.919	-7.9
3712.64	-5.9
3715.359	-3.9
3718.076	-2.9
3720.792	1.1
3723.505	-3.9
3726.216	-2.9
3728.925	-0.9
3731.632	-2.9
3734.336	-5.9
3737.039	-0.9
3739.74	-5.9
3742.439	-4.9
3745.136	-4.9
3747.83	-5.9
3750.523	-2.9
3753.213	-5.9
3755.902	-0.9
3758.589	-2.9
3761.273	-2.9
3763.956	-1.9
3766.636	-5.9
3769.315	-6.9
3771.991	-3.9
3774.665	-0.9
3777.338	-0.9
3780.008	2.1
3782.677	-0.9
3785.343	-3.9
3788.007	-1.9
3790.67	-2.9
3793.33	-4.9
3795.989	-6.9
3798.645	-6.9
3801.299	-2.9
3803.952	-4.9
3806.602	0.1
3809.251	0.1
3811.897	-4.9
3814.542	-3.9
3817.184	-4.9
3819.825	-6.9
3822.463	-9.9
3825.1	-4.9
3827.735	-6.9
3830.367	-1.9
3832.998	-2.9
3835.627	1.1
3838.253	0.1
3840.878	-3.9
3843.501	-5.9
3846.122	-5.9
3848.741	-3.9
3851.358	-4.9
3853.973	0.1
3856.586	-8.9
3859.197	-2.9
3861.806	-4.9
3864.414	-4.9
3867.019	-3.9
3869.622	-7.9
3872.224	-1.9
3874.823	-1.9
3877.421	-0.9
3880.016	-4.9
3882.61	-1.9
3885.202	2.1
3887.792	-1.9
3890.38	-0.9
3892.966	-2.9
3895.55	-1.9
3898.132	-1.9
3900.713	-1.9
3903.291	-2.9
3905.868	-3.9
3908.442	-4.9
3911.015	-8.9
3913.586	-2.9
3916.155	1.1
3918.722	-0.9
3921.287	-1.9
3923.85	-0.9
3926.411	-4.9
3928.971	-3.9
3931.528	-5.9
3934.084	-6.9
3936.638	-3.9
3939.19	-3.9
3941.74	-0.9
3944.288	1.1
3946.834	-0.9
3949.378	0.1
3951.921	-3.9
3954.462	-5.9
3957	-5.9
3959.537	-3.9
3962.072	-3.9
3964.606	-2.9
3967.137	-0.9
3969.667	2.1
3972.194	-5.9
3974.72	-1.9
3977.244	-7.9
3979.766	-2.9
3982.286	-6.9
3984.805	-1.9
3987.321	-0.9
3989.836	-3.9
3992.349	0.1
3994.86	2.1
3997.369	-5.9
3999.877	-4.9
4002.382	-8.9
4004.886	-6.9
4007.388	-5.9
4009.888	-4.9
4012.386	-0.9
4014.883	-0.9
4017.377	-0.9
4019.87	-2.9
4022.361	-2.9
4024.85	-5.9
4027.338	-7.9
4029.823	-4.9
4032.307	-3.9
4034.789	-2.9
4037.269	-0.9
4039.747	-0.9
4042.224	-2.9
4044.699	-1.9
4047.172	-1.9
4049.643	-4.9
4052.112	-7.9
4054.58	-3.9
4057.046	-4.9
4059.51	-3.9
4061.972	-0.9
4064.432	-0.9
4066.891	-1.9
4069.348	-0.9
4071.803	-4.9
4074.256	-9.9
4076.708	-3.9
4079.158	-1.9
4081.606	-6.9
4084.052	0.1
4086.497	-2.9
4088.939	1.1
4091.38	-1.9
4093.819	-2.9
4096.257	-5.9
4098.693	-3.9
4101.127	-2.9
4103.559	0.1
4105.989	7.1
4108.418	2.1
4110.845	2.1
4113.27	-0.9
4115.694	-4.9
4118.115	1.1
4120.535	-3.9
4122.954	-4.9
4125.37	-9.9
4127.785	-8.9
4130.198	-3.9
4132.609	-2.9
4135.019	-2.9
4137.427	-2.9
4139.833	-2.9
4142.237	-5.9
