Data from I0.5_T5s_Bsub_water_1-1_2_RamanShift_1.txt Node
Date: Mon Mar 13 13:56:15 IST 2017
User: aro
Spectrometer: QEPB0276
Trigger mode: 0
Integration Time (sec): 5.000000E0
Scans to average: 1
Electric dark correction enabled: true
Nonlinearity correction enabled: false
Boxcar width: 0
XAxis mode: Raman Shifts
Number of Pixels in Spectrum: 1044
>>>>>Begin Spectral Data<<<<<
160.701	-9
166.742	2
172.777	31
178.805	130
184.826	362
190.841	764
196.849	1239
202.85	1552
208.845	1610
214.833	1579
220.815	1525
226.789	1507
232.758	1483
238.719	1428
244.674	1418
250.623	1370
256.565	1327
262.5	1282
268.429	1251
274.351	1218
280.267	1181
286.176	1147
292.079	1141
297.975	1111
303.865	1073
309.748	1049
315.625	1034
321.495	1016
327.359	1010
333.217	995
339.068	985
344.912	965
350.751	965
356.583	962
362.408	941
368.227	963
374.04	946
379.847	945
385.647	941
391.44	944
397.228	959
403.009	952
408.784	948
414.553	961
420.315	955
426.071	955
431.821	939
437.565	945
443.302	944
449.033	940
454.758	940
460.477	938
466.189	949
471.896	930
477.596	929
483.29	919
488.978	928
494.66	912
500.335	922
506.005	902
511.668	877
517.325	862
522.977	864
528.622	858
534.261	843
539.894	840
545.521	840
551.141	852
556.756	842
562.365	834
567.968	819
573.565	826
579.155	816
584.74	814
590.319	817
595.892	815
601.459	809
607.02	788
612.575	799
618.124	782
623.667	784
629.204	782
634.735	776
640.261	775
645.781	769
651.294	762
656.802	775
662.304	768
667.8	766
673.29	767
678.775	762
684.254	759
689.726	769
695.193	758
700.655	752
706.11	747
711.56	745
717.004	732
722.442	746
727.874	757
733.301	742
738.722	741
744.137	737
749.547	736
754.951	732
760.349	729
765.741	743
771.128	746
776.509	745
781.885	743
787.254	731
792.618	738
797.977	733
803.33	737
808.677	728
814.019	717
819.355	716
824.686	699
830.011	720
835.33	713
840.644	716
845.952	704
851.255	712
856.552	722
861.844	713
867.13	706
872.41	709
877.686	697
882.955	694
888.219	702
893.478	687
898.731	681
903.979	672
909.221	663
914.458	674
919.69	664
924.916	674
930.136	676
935.351	677
940.561	676
945.766	669
950.965	678
956.158	665
961.347	660
966.529	653
971.707	656
976.879	633
982.046	638
987.208	631
992.364	629
997.515	649
1002.66	631
1007.801	650
1012.936	658
1018.066	670
1023.19	669
1028.309	654
1033.423	674
1038.532	667
1043.636	658
1048.734	663
1053.827	653
1058.915	642
1063.998	647
1069.075	655
1074.147	648
1079.214	652
1084.276	646
1089.333	664
1094.385	665
1099.431	669
1104.472	666
1109.509	652
1114.54	661
1119.565	650
1124.586	653
1129.602	648
1134.613	636
1139.618	634
1144.619	638
1149.614	643
1154.604	645
1159.589	649
1164.57	657
1169.545	654
1174.515	652
1179.48	653
1184.44	649
1189.395	650
1194.345	657
1199.29	648
1204.23	652
1209.165	649
1214.095	654
1219.021	661
1223.941	658
1228.856	664
1233.766	671
1238.672	674
1243.572	668
1248.467	669
1253.358	664
1258.244	645
1263.124	639
1268	627
1272.871	635
1277.737	631
1282.599	625
1287.455	628
1292.306	628
1297.153	643
1301.995	647
1306.832	651
1311.664	657
1316.491	657
1321.314	643
1326.132	639
1330.945	633
1335.753	635
1340.556	616
1345.354	600
1350.148	599
1354.937	595
1359.722	601
1364.501	596
1369.276	609
1374.046	626
1378.811	623
1383.572	624
1388.327	617
1393.079	614
1397.825	603
1402.567	602
1407.304	585
1412.036	587
1416.764	587
1421.487	578
1426.205	593
1430.919	584
1435.628	593
1440.333	607
1445.032	602
1449.727	611
1454.418	610
1459.104	610
1463.785	613
1468.462	596
1473.134	603
1477.802	594
1482.465	587
1487.123	591
1491.777	593
1496.426	596
1501.071	599
1505.711	609
1510.347	619
1514.978	621
1519.604	629
1524.226	630
1528.844	627
1533.457	632
1538.065	626
1542.669	640
1547.269	618
1551.864	625
1556.454	615
1561.041	619
1565.622	626
1570.199	632
1574.772	636
1579.34	642
1583.904	655
1588.464	657
1593.019	646
1597.569	659
1602.115	657
1606.657	654
1611.195	651
1615.728	650
1620.256	653
1624.78	669
1629.3	671
1633.816	672
1638.327	678
1642.834	683
1647.336	682
1651.834	702
1656.328	693
1660.817	697
1665.302	697
1669.783	676
1674.259	671
1678.732	660
1683.199	631
1687.663	632
1692.122	604
1696.577	594
1701.028	584
1705.474	579
1709.917	583
1714.355	571
1718.788	567
1723.218	556
1727.643	565
1732.064	542
1736.481	546
1740.893	532
1745.301	518
1749.705	507
1754.105	497
1758.501	490
1762.893	476
1767.28	472
1771.663	469
1776.042	473
1780.417	469
1784.787	469
1789.154	480
1793.516	479
1797.874	498
1802.228	504
1806.578	495
1810.924	490
1815.266	489
1819.603	489
1823.937	482
1828.266	474
1832.591	468
1836.913	467
1841.23	456
1845.543	458
1849.852	453
1854.156	461
1858.457	453
1862.754	465
1867.047	465
1871.335	459
1875.62	454
1879.9	461
1884.177	456
1888.449	465
1892.718	463
1896.982	460
1901.243	452
1905.499	457
1909.752	455
1914	460
1918.245	453
1922.485	464
1926.722	463
1930.954	468
1935.183	471
1939.408	468
1943.628	489
1947.845	470
1952.058	460
1956.267	471
1960.472	462
1964.673	464
1968.87	447
1973.063	451
1977.252	444
1981.438	447
1985.619	446
1989.797	437
1993.971	440
1998.14	430
2002.306	442
2006.469	434
2010.627	442
2014.781	443
2018.932	453
2023.078	438
2027.221	449
2031.36	429
2035.495	433
2039.627	424
2043.754	429
2047.878	422
2051.998	425
2056.114	425
2060.226	425
2064.334	425
2068.439	410
2072.54	427
2076.637	420
2080.73	423
2084.82	424
2088.906	437
2092.988	424
2097.066	419
2101.14	421
2105.211	419
2109.278	426
2113.342	429
2117.401	418
2121.457	422
2125.509	411
2129.558	421
2133.602	428
2137.643	420
2141.681	414
2145.714	425
2149.744	417
2153.77	405
2157.793	409
2161.812	409
2165.827	402
2169.838	400
2173.846	385
2177.851	382
2181.851	379
2185.848	379
2189.841	377
2193.831	371
2197.817	373
2201.799	364
2205.778	366
2209.753	365
2213.725	373
2217.693	375
2221.657	368
2225.618	371
2229.575	365
2233.529	365
2237.479	371
2241.425	364
2245.368	370
2249.307	357
2253.243	355
2257.175	350
2261.104	337
2265.029	335
2268.95	344
2272.868	334
2276.783	331
2280.694	332
2284.601	323
2288.505	320
2292.405	329
2296.302	319
2300.195	314
2304.085	310
2307.971	301
2311.854	306
2315.734	298
2319.609	305
2323.482	293
2327.351	285
2331.216	290
2335.078	289
2338.937	286
2342.792	290
2346.643	288
2350.492	286
2354.336	277
2358.178	294
2362.015	285
2365.85	279
2369.681	281
2373.508	290
2377.333	279
2381.153	273
2384.971	282
2388.785	286
2392.595	278
2396.402	284
2400.206	281
2404.007	278
2407.804	275
2411.597	274
2415.388	282
2419.174	277
2422.958	278
2426.738	275
2430.515	275
2434.289	275
2438.059	269
2441.825	274
2445.589	267
2449.349	255
2453.106	266
2456.859	263
2460.61	258
2464.356	257
2468.1	252
2471.84	252
2475.577	258
2479.311	242
2483.041	250
2486.768	249
2490.492	259
2494.213	246
2497.93	249
2501.644	253
2505.355	254
2509.062	254
2512.766	250
2516.467	255
2520.165	252
2523.859	250
2527.551	248
2531.239	248
2534.923	250
2538.605	242
2542.283	240
2545.958	240
2549.63	236
2553.299	236
2556.964	238
2560.626	233
2564.285	226
2567.941	233
2571.594	230
2575.243	228
2578.89	223
2582.533	231
2586.173	230
2589.809	233
2593.443	222
2597.073	226
2600.701	221
2604.325	219
2607.946	224
2611.564	221
2615.178	219
2618.79	217
2622.398	221
2626.004	218
2629.606	217
2633.205	213
2636.801	220
2640.394	207
2643.983	211
2647.57	206
2651.153	202
2654.734	202
2658.311	195
2661.885	192
2665.456	197
2669.025	197
2672.589	196
2676.151	195
2679.71	192
2683.266	193
2686.819	191
2690.368	182
2693.915	183
2697.458	187
2700.999	183
2704.536	182
2708.071	170
2711.602	166
2715.13	172
2718.656	171
2722.178	166
2725.697	176
2729.214	172
2732.727	161
2736.237	172
2739.744	167
2743.249	174
2746.75	170
2750.248	169
2753.743	165
2757.236	176
2760.725	171
2764.211	172
2767.695	173
2771.175	175
2774.652	170
2778.127	172
2781.598	168
2785.067	170
2788.532	159
2791.995	164
2795.455	163
2798.911	166
2802.365	163
2805.816	160
2809.264	162
2812.709	158
2816.151	154
2819.59	159
2823.026	155
2826.46	159
2829.89	154
2833.318	155
2836.742	157
2840.164	150
2843.583	159
2846.999	156
2850.412	159
2853.822	154
2857.229	155
2860.634	158
2864.035	165
2867.434	166
2870.83	164
2874.223	159
2877.613	161
2881	161
2884.385	156
2887.766	156
2891.145	151
2894.521	159
2897.894	155
2901.264	158
2904.631	153
2907.996	147
2911.358	158
2914.717	148
2918.073	151
2921.426	152
2924.777	156
2928.124	155
2931.469	158
2934.811	159
2938.15	161
2941.487	162
2944.821	161
2948.152	167
2951.48	163
2954.805	168
2958.128	167
2961.447	164
2964.765	169
2968.079	162
2971.39	168
2974.699	168
2978.005	172
2981.308	168
2984.609	173
2987.907	179
2991.202	181
2994.494	182
2997.784	186
3001.07	189
3004.355	191
3007.636	196
3010.915	195
3014.191	199
3017.464	205
3020.734	202
3024.002	199
3027.267	214
3030.53	204
3033.789	210
3037.046	211
3040.301	214
3043.552	219
3046.801	217
3050.048	224
3053.291	229
3056.532	232
3059.771	235
3063.006	239
3066.239	247
3069.469	245
3072.697	255
3075.922	250
3079.144	264
3082.364	274
3085.581	264
3088.795	286
3092.007	291
3095.216	285
3098.423	303
3101.627	298
3104.828	302
3108.026	310
3111.222	316
3114.416	318
3117.607	332
3120.795	337
3123.98	337
3127.163	350
3130.344	353
3133.521	367
3136.696	370
3139.869	374
3143.039	380
3146.206	382
3149.371	383
3152.533	374
3155.693	393
3158.85	394
3162.005	384
3165.157	393
3168.306	390
3171.453	393
3174.597	397
3177.739	396
3180.878	401
3184.014	394
3187.149	394
3190.28	390
3193.409	393
3196.536	402
3199.659	409
3202.781	407
3205.9	402
3209.016	408
3212.13	402
3215.241	400
3218.35	389
3221.456	396
3224.56	387
3227.661	389
3230.76	384
3233.856	382
3236.95	373
3240.041	373
3243.13	378
3246.216	369
3249.3	367
3252.382	372
3255.46	370
3258.537	362
3261.611	367
3264.682	374
3267.751	362
3270.818	357
3273.882	366
3276.943	348
3280.002	361
3283.059	354
3286.113	349
3289.165	336
3292.214	337
3295.261	329
3298.306	323
3301.348	322
3304.387	316
3307.425	311
3310.459	308
3313.492	308
3316.521	296
3319.549	295
3322.574	294
3325.597	299
3328.617	294
3331.635	286
3334.65	284
3337.663	282
3340.674	275
3343.682	273
3346.688	282
3349.691	272
3352.692	273
3355.691	276
3358.687	272
3361.681	263
3364.673	268
3367.662	258
3370.649	257
3373.633	257
3376.615	251
3379.595	244
3382.572	243
3385.547	239
3388.52	242
3391.49	234
3394.458	231
3397.424	223
3400.387	226
3403.348	226
3406.307	217
3409.263	215
3412.217	211
3415.168	217
3418.118	208
3421.065	205
3424.009	202
3426.951	198
3429.891	206
3432.829	193
3435.764	195
3438.697	195
3441.628	180
3444.557	179
3447.483	184
3450.407	177
3453.328	163
3456.247	163
3459.164	153
3462.079	152
3464.991	150
3467.902	145
3470.809	140
3473.715	134
3476.618	133
3479.519	129
3482.418	123
3485.315	117
3488.209	111
3491.101	111
3493.99	111
3496.878	103
3499.763	108
3502.646	103
3505.527	95
3508.405	94
3511.281	95
3514.155	92
3517.027	86
3519.897	82
3522.764	83
3525.629	73
3528.492	73
3531.352	73
3534.211	61
3537.067	62
3539.921	60
3542.773	53
3545.622	51
3548.469	48
3551.315	40
3554.157	37
3556.998	35
3559.837	36
3562.673	34
3565.507	30
3568.339	29
3571.169	34
3573.996	28
3576.822	30
3579.645	20
3582.466	28
3585.285	20
3588.101	19
3590.916	18
3593.728	16
3596.538	15
3599.346	11
3602.152	7
3604.956	10
3607.757	8
3610.556	4
3613.354	2
3616.149	0
3618.942	-3
3621.732	-2
3624.521	-7
3627.307	-7
3630.092	-6
3632.874	-9
3635.654	-2
3638.432	-5
3641.208	-8
3643.982	-8
3646.753	-4
3649.523	-8
3652.29	-8
3655.055	-9
3657.818	-12
3660.579	-11
3663.338	-10
3666.095	-9
3668.849	-14
3671.602	-14
3674.352	-16
3677.101	-14
3679.847	-18
3682.591	-19
3685.333	-20
3688.073	-22
3690.811	-21
3693.547	-24
3696.281	-25
3699.013	-26
3701.742	-24
3704.47	-22
3707.195	-25
3709.919	-26
3712.64	-23
3715.359	-25
3718.076	-23
3720.792	-23
3723.505	-21
3726.216	-24
3728.925	-27
3731.632	-26
3734.336	-24
3737.039	-24
3739.74	-23
3742.439	-22
3745.136	-29
3747.83	-24
3750.523	-27
3753.213	-29
3755.902	-28
3758.589	-28
3761.273	-30
3763.956	-29
3766.636	-31
3769.315	-32
3771.991	-26
3774.665	-27
3777.338	-28
3780.008	-29
3782.677	-31
3785.343	-30
3788.007	-29
3790.67	-31
3793.33	-30
3795.989	-33
3798.645	-32
3801.299	-30
3803.952	-30
3806.602	-30
3809.251	-32
3811.897	-28
3814.542	-29
3817.184	-33
3819.825	-34
3822.463	-32
3825.1	-33
3827.735	-33
3830.367	-33
3832.998	-32
3835.627	-34
3838.253	-30
3840.878	-30
3843.501	-35
3846.122	-31
3848.741	-37
3851.358	-32
3853.973	-33
3856.586	-35
3859.197	-28
3861.806	-30
3864.414	-27
3867.019	-33
3869.622	-35
3872.224	-33
3874.823	-33
3877.421	-33
3880.016	-30
3882.61	-28
3885.202	-32
3887.792	-29
3890.38	-34
3892.966	-33
3895.55	-32
3898.132	-38
3900.713	-35
3903.291	-34
3905.868	-35
3908.442	-34
3911.015	-36
3913.586	-36
3916.155	-35
3918.722	-33
3921.287	-39
3923.85	-35
3926.411	-37
3928.971	-36
3931.528	-34
3934.084	-35
3936.638	-34
3939.19	-33
3941.74	-39
3944.288	-37
3946.834	-34
3949.378	-36
3951.921	-35
3954.462	-35
3957	-36
3959.537	-34
3962.072	-34
3964.606	-35
3967.137	-34
3969.667	-35
3972.194	-36
3974.72	-40
3977.244	-32
3979.766	-36
3982.286	-37
3984.805	-39
3987.321	-35
3989.836	-37
3992.349	-38
3994.86	-35
3997.369	-36
3999.877	-32
4002.382	-40
4004.886	-37
4007.388	-32
4009.888	-33
4012.386	-34
4014.883	-30
4017.377	-32
4019.87	-32
4022.361	-34
4024.85	-36
4027.338	-31
4029.823	-34
4032.307	-36
4034.789	-36
4037.269	-39
4039.747	-36
4042.224	-38
4044.699	-41
4047.172	-37
4049.643	-35
4052.112	-38
4054.58	-38
4057.046	-37
4059.51	-37
4061.972	-35
4064.432	-33
4066.891	-35
4069.348	-35
4071.803	-29
4074.256	-32
4076.708	-31
4079.158	-35
4081.606	-34
4084.052	-32
4086.497	-35
4088.939	-34
4091.38	-37
4093.819	-35
4096.257	-41
4098.693	-37
4101.127	-37
4103.559	-36
4105.989	-23
4108.418	-23
4110.845	-23
4113.27	-21
4115.694	-20
4118.115	-15
4120.535	-37
4122.954	-39
4125.37	-34
4127.785	-37
4130.198	-37
4132.609	-35
4135.019	-40
4137.427	-38
4139.833	-37
4142.237	-39
