Data from I0.75_T10s_Bsub_water_0_1_RamanShift_1.txt Node
Date: Mon Mar 13 15:24:57 IST 2017
User: aro
Spectrometer: QEPB0276
Trigger mode: 0
Integration Time (sec): 1.000000E1
Scans to average: 1
Electric dark correction enabled: true
Nonlinearity correction enabled: false
Boxcar width: 0
XAxis mode: Raman Shifts
Number of Pixels in Spectrum: 1044
>>>>>Begin Spectral Data<<<<<
160.701	-48
166.742	8
172.777	177
178.805	729
184.826	2082
190.841	4483
196.849	7257
202.85	9071
208.845	9596
214.833	9338
220.815	9087
226.789	8944
232.758	8828
238.719	8666
244.674	8518
250.623	8244
256.565	8021
262.5	7776
268.429	7580
274.351	7374
280.267	7248
286.176	7033
292.079	6925
297.975	6766
303.865	6603
309.748	6441
315.625	6346
321.495	6199
327.359	6114
333.217	5996
339.068	5915
344.912	5894
350.751	5819
356.583	5770
362.408	5752
368.227	5710
374.04	5690
379.847	5694
385.647	5671
391.44	5718
397.228	5709
403.009	5693
408.784	5711
414.553	5706
420.315	5719
426.071	5727
431.821	5706
437.565	5713
443.302	5688
449.033	5678
454.758	5629
460.477	5650
466.189	5633
471.896	5554
477.596	5559
483.29	5555
488.978	5523
494.66	5518
500.335	5473
506.005	5403
511.668	5329
517.325	5306
522.977	5252
528.622	5195
534.261	5157
539.894	5125
545.521	5149
551.141	5113
556.756	5108
562.365	5083
567.968	5083
573.565	5048
579.155	5027
584.74	5060
590.319	5037
595.892	4990
601.459	4952
607.02	4936
612.575	4917
618.124	4855
623.667	4858
629.204	4830
634.735	4794
640.261	4789
645.781	4770
651.294	4749
656.802	4752
662.304	4733
667.8	4754
673.29	4718
678.775	4760
684.254	4708
689.726	4744
695.193	4709
700.655	4702
706.11	4689
711.56	4659
717.004	4668
722.442	4626
727.874	4600
733.301	4625
738.722	4597
744.137	4587
749.547	4616
754.951	4568
760.349	4594
765.741	4614
771.128	4628
776.509	4657
781.885	4649
787.254	4643
792.618	4633
797.977	4601
803.33	4593
808.677	4587
814.019	4562
819.355	4499
824.686	4488
830.011	4496
835.33	4492
840.644	4500
845.952	4503
851.255	4509
856.552	4546
861.844	4549
867.13	4532
872.41	4515
877.686	4506
882.955	4528
888.219	4454
893.478	4405
898.731	4357
903.979	4317
909.221	4288
914.458	4279
919.69	4282
924.916	4282
930.136	4306
935.351	4320
940.561	4342
945.766	4341
950.965	4335
956.158	4332
961.347	4266
966.529	4231
971.707	4191
976.879	4174
982.046	4115
987.208	4130
992.364	4128
997.515	4154
1002.66	4193
1007.801	4257
1012.936	4293
1018.066	4352
1023.19	4354
1028.309	4373
1033.423	4383
1038.532	4346
1043.636	4340
1048.734	4296
1053.827	4239
1058.915	4235
1063.998	4207
1069.075	4221
1074.147	4236
1079.214	4260
1084.276	4277
1089.333	4339
1094.385	4350
1099.431	4424
1104.472	4407
1109.509	4386
1114.54	4353
1119.565	4269
1124.586	4264
1129.602	4217
1134.613	4230
1139.618	4203
1144.619	4218
1149.614	4229
1154.604	4239
1159.589	4307
1164.57	4317
1169.545	4299
1174.515	4314
1179.48	4317
1184.44	4303
1189.395	4273
1194.345	4267
1199.29	4210
1204.23	4260
1209.165	4285
1214.095	4292
1219.021	4350
1223.941	4386
1228.856	4439
1233.766	4430
1238.672	4442
1243.572	4422
1248.467	4434
1253.358	4389
1258.244	4344
1263.124	4268
1268	4232
1272.871	4182
1277.737	4131
1282.599	4162
1287.455	4162
1292.306	4187
1297.153	4214
1301.995	4280
1306.832	4295
1311.664	4333
1316.491	4320
1321.314	4321
1326.132	4286
1330.945	4241
1335.753	4142
1340.556	4090
1345.354	4025
1350.148	3975
1354.937	3964
1359.722	3992
1364.501	4039
1369.276	4078
1374.046	4168
1378.811	4190
1383.572	4205
1388.327	4193
1393.079	4139
1397.825	4090
1402.567	4042
1407.304	4007
1412.036	3958
1416.764	3940
1421.487	3925
1426.205	3942
1430.919	3949
1435.628	4007
1440.333	4046
1445.032	4072
1449.727	4103
1454.418	4107
1459.104	4107
1463.785	4092
1468.462	4047
1473.134	4016
1477.802	3993
1482.465	3965
1487.123	3973
1491.777	3988
1496.426	4011
1501.071	4044
1505.711	4071
1510.347	4122
1514.978	4194
1519.604	4201
1524.226	4263
1528.844	4259
1533.457	4271
1538.065	4255
1542.669	4242
1547.269	4219
1551.864	4203
1556.454	4184
1561.041	4206
1565.622	4222
1570.199	4242
1574.772	4285
1579.34	4303
1583.904	4337
1588.464	4386
1593.019	4367
1597.569	4363
1602.115	4365
1606.657	4382
1611.195	4340
1615.728	4334
1620.256	4362
1624.78	4393
1629.3	4357
1633.816	4443
1638.327	4492
1642.834	4531
1647.336	4550
1651.834	4572
1656.328	4571
1660.817	4582
1665.302	4546
1669.783	4543
1674.259	4455
1678.732	4370
1683.199	4240
1687.663	4140
1692.122	4030
1696.577	3955
1701.028	3934
1705.474	3951
1709.917	3950
1714.355	3916
1718.788	3859
1723.218	3806
1727.643	3777
1732.064	3736
1736.481	3667
1740.893	3590
1745.301	3530
1749.705	3466
1754.105	3413
1758.501	3372
1762.893	3321
1767.28	3285
1771.663	3277
1776.042	3253
1780.417	3294
1784.787	3314
1789.154	3352
1793.516	3378
1797.874	3429
1802.228	3480
1806.578	3465
1810.924	3469
1815.266	3437
1819.603	3380
1823.937	3326
1828.266	3302
1832.591	3262
1836.913	3225
1841.23	3204
1845.543	3207
1849.852	3203
1854.156	3215
1858.457	3235
1862.754	3198
1867.047	3235
1871.335	3242
1875.62	3233
1879.9	3242
1884.177	3238
1888.449	3245
1892.718	3226
1896.982	3204
1901.243	3190
1905.499	3167
1909.752	3174
1914	3192
1918.245	3192
1922.485	3205
1926.722	3231
1930.954	3263
1935.183	3264
1939.408	3284
1943.628	3301
1947.845	3299
1952.058	3292
1956.267	3289
1960.472	3271
1964.673	3232
1968.87	3193
1973.063	3185
1977.252	3151
1981.438	3159
1985.619	3125
1989.797	3082
1993.971	3115
1998.14	3125
2002.306	3121
2006.469	3103
2010.627	3118
2014.781	3097
2018.932	3090
2023.078	3089
2027.221	3052
2031.36	3049
2035.495	2994
2039.627	3000
2043.754	2956
2047.878	2950
2051.998	2934
2056.114	2941
2060.226	2960
2064.334	2944
2068.439	2983
2072.54	3005
2076.637	2996
2080.73	3023
2084.82	3000
2088.906	3016
2092.988	3030
2097.066	3008
2101.14	2969
2105.211	2975
2109.278	2969
2113.342	2968
2117.401	2967
2121.457	2935
2125.509	2942
2129.558	2913
2133.602	2926
2137.643	2885
2141.681	2885
2145.714	2902
2149.744	2878
2153.77	2870
2157.793	2853
2161.812	2832
2165.827	2790
2169.838	2754
2173.846	2752
2177.851	2691
2181.851	2667
2185.848	2620
2189.841	2630
2193.831	2587
2197.817	2593
2201.799	2571
2205.778	2588
2209.753	2586
2213.725	2584
2217.693	2581
2221.657	2570
2225.618	2591
2229.575	2581
2233.529	2560
2237.479	2560
2241.425	2530
2245.368	2523
2249.307	2485
2253.243	2473
2257.175	2426
2261.104	2401
2265.029	2395
2268.95	2371
2272.868	2372
2276.783	2338
2280.694	2323
2284.601	2299
2288.505	2285
2292.405	2304
2296.302	2242
2300.195	2236
2304.085	2202
2307.971	2184
2311.854	2149
2315.734	2134
2319.609	2101
2323.482	2077
2327.351	2069
2331.216	2042
2335.078	2037
2338.937	2016
2342.792	2011
2346.643	2025
2350.492	1996
2354.336	2011
2358.178	2006
2362.015	2020
2365.85	2019
2369.681	2031
2373.508	2011
2377.333	2015
2381.153	2008
2384.971	1997
2388.785	1994
2392.595	1987
2396.402	1988
2400.206	1967
2404.007	1965
2407.804	1936
2411.597	1940
2415.388	1955
2419.174	1933
2422.958	1928
2426.738	1929
2430.515	1920
2434.289	1917
2438.059	1927
2441.825	1898
2445.589	1895
2449.349	1873
2453.106	1869
2456.859	1851
2460.61	1855
2464.356	1840
2468.1	1828
2471.84	1798
2475.577	1805
2479.311	1815
2483.041	1823
2486.768	1811
2490.492	1796
2494.213	1789
2497.93	1788
2501.644	1802
2505.355	1790
2509.062	1811
2512.766	1784
2516.467	1806
2520.165	1788
2523.859	1771
2527.551	1742
2531.239	1757
2534.923	1759
2538.605	1723
2542.283	1729
2545.958	1703
2549.63	1729
2553.299	1707
2556.964	1710
2560.626	1697
2564.285	1671
2567.941	1654
2571.594	1671
2575.243	1663
2578.89	1645
2582.533	1638
2586.173	1639
2589.809	1635
2593.443	1623
2597.073	1621
2600.701	1604
2604.325	1588
2607.946	1598
2611.564	1592
2615.178	1588
2618.79	1584
2622.398	1579
2626.004	1572
2629.606	1559
2633.205	1541
2636.801	1518
2640.394	1512
2643.983	1503
2647.57	1483
2651.153	1469
2654.734	1462
2658.311	1433
2661.885	1427
2665.456	1402
2669.025	1411
2672.589	1403
2676.151	1383
2679.71	1385
2683.266	1361
2686.819	1348
2690.368	1334
2693.915	1309
2697.458	1297
2700.999	1299
2704.536	1277
2708.071	1258
2711.602	1256
2715.13	1234
2718.656	1255
2722.178	1224
2725.697	1233
2729.214	1227
2732.727	1235
2736.237	1234
2739.744	1245
2743.249	1248
2746.75	1250
2750.248	1242
2753.743	1248
2757.236	1249
2760.725	1238
2764.211	1232
2767.695	1238
2771.175	1235
2774.652	1223
2778.127	1208
2781.598	1217
2785.067	1193
2788.532	1193
2791.995	1181
2795.455	1177
2798.911	1164
2802.365	1167
2805.816	1162
2809.264	1153
2812.709	1144
2816.151	1146
2819.59	1126
2823.026	1131
2826.46	1140
2829.89	1113
2833.318	1140
2836.742	1109
2840.164	1103
2843.583	1102
2846.999	1121
2850.412	1112
2853.822	1110
2857.229	1123
2860.634	1108
2864.035	1109
2867.434	1140
2870.83	1130
2874.223	1112
2877.613	1152
2881	1127
2884.385	1107
2887.766	1100
2891.145	1108
2894.521	1108
2897.894	1085
2901.264	1070
2904.631	1058
2907.996	1068
2911.358	1082
2914.717	1064
2918.073	1065
2921.426	1066
2924.777	1057
2928.124	1071
2931.469	1075
2934.811	1082
2938.15	1086
2941.487	1088
2944.821	1081
2948.152	1088
2951.48	1084
2954.805	1083
2958.128	1085
2961.447	1093
2964.765	1088
2968.079	1100
2971.39	1090
2974.699	1118
2978.005	1117
2981.308	1152
2984.609	1146
2987.907	1170
2991.202	1178
2994.494	1208
2997.784	1225
3001.07	1237
3004.355	1247
3007.636	1275
3010.915	1268
3014.191	1282
3017.464	1272
3020.734	1298
3024.002	1282
3027.267	1298
3030.53	1286
3033.789	1308
3037.046	1302
3040.301	1327
3043.552	1326
3046.801	1357
3050.048	1367
3053.291	1375
3056.532	1409
3059.771	1443
3063.006	1467
3066.239	1495
3069.469	1505
3072.697	1565
3075.922	1583
3079.144	1603
3082.364	1633
3085.581	1646
3088.795	1672
3092.007	1682
3095.216	1723
3098.423	1765
3101.627	1768
3104.828	1788
3108.026	1825
3111.222	1823
3114.416	1895
3117.607	1909
3120.795	1913
3123.98	1965
3127.163	2020
3130.344	2036
3133.521	2067
3136.696	2121
3139.869	2119
3143.039	2192
3146.206	2181
3149.371	2195
3152.533	2216
3155.693	2249
3158.85	2245
3162.005	2243
3165.157	2242
3168.306	2246
3171.453	2257
3174.597	2253
3177.739	2268
3180.878	2256
3184.014	2271
3187.149	2247
3190.28	2257
3193.409	2276
3196.536	2283
3199.659	2279
3202.781	2278
3205.9	2294
3209.016	2249
3212.13	2256
3215.241	2257
3218.35	2255
3221.456	2219
3224.56	2219
3227.661	2180
3230.76	2185
3233.856	2151
3236.95	2135
3240.041	2135
3243.13	2106
3246.216	2078
3249.3	2099
3252.382	2071
3255.46	2068
3258.537	2052
3261.611	2056
3264.682	2046
3267.751	2038
3270.818	2038
3273.882	2021
3276.943	1998
3280.002	2002
3283.059	1954
3286.113	1938
3289.165	1910
3292.214	1905
3295.261	1863
3298.306	1846
3301.348	1799
3304.387	1766
3307.425	1739
3310.459	1722
3313.492	1700
3316.521	1669
3319.549	1654
3322.574	1646
3325.597	1632
3328.617	1602
3331.635	1596
3334.65	1601
3337.663	1581
3340.674	1580
3343.682	1561
3346.688	1564
3349.691	1545
3352.692	1540
3355.691	1536
3358.687	1515
3361.681	1493
3364.673	1482
3367.662	1473
3370.649	1441
3373.633	1430
3376.615	1410
3379.595	1367
3382.572	1362
3385.547	1342
3388.52	1322
3391.49	1311
3394.458	1268
3397.424	1275
3400.387	1261
3403.348	1249
3406.307	1229
3409.263	1208
3412.217	1197
3415.168	1185
3418.118	1186
3421.065	1172
3424.009	1158
3426.951	1128
3429.891	1117
3432.829	1088
3435.764	1078
3438.697	1065
3441.628	1050
3444.557	1015
3447.483	967
3450.407	961
3453.328	933
3456.247	904
3459.164	884
3462.079	858
3464.991	825
3467.902	811
3470.809	778
3473.715	760
3476.618	736
3479.519	724
3482.418	695
3485.315	673
3488.209	677
3491.101	649
3493.99	631
3496.878	615
3499.763	609
3502.646	575
3505.527	564
3508.405	546
3511.281	521
3514.155	502
3517.027	465
3519.897	463
3522.764	441
3525.629	417
3528.492	394
3531.352	389
3534.211	356
3537.067	337
3539.921	314
3542.773	307
3545.622	289
3548.469	267
3551.315	257
3554.157	232
3556.998	230
3559.837	224
3562.673	210
3565.507	192
3568.339	197
3571.169	171
3573.996	168
3576.822	155
3579.645	142
3582.466	129
3585.285	115
3588.101	104
3590.916	90
3593.728	86
3596.538	76
3599.346	59
3602.152	64
3604.956	43
3607.757	36
3610.556	29
3613.354	26
3616.149	8
3618.942	9
3621.732	-11
3624.521	-5
3627.307	-13
3630.092	-4
3632.874	-20
3635.654	-23
3638.432	-34
3641.208	-31
3643.982	-40
3646.753	-40
3649.523	-45
3652.29	-51
3655.055	-66
3657.818	-66
3660.579	-65
3663.338	-76
3666.095	-83
3668.849	-83
3671.602	-85
3674.352	-89
3677.101	-93
3679.847	-94
3682.591	-105
3685.333	-112
3688.073	-108
3690.811	-108
3693.547	-111
3696.281	-117
3699.013	-120
3701.742	-127
3704.47	-123
3707.195	-127
3709.919	-130
3712.64	-134
3715.359	-133
3718.076	-141
3720.792	-137
3723.505	-137
3726.216	-141
3728.925	-147
3731.632	-145
3734.336	-151
3737.039	-150
3739.74	-151
3742.439	-154
3745.136	-155
3747.83	-155
3750.523	-152
3753.213	-154
3755.902	-156
3758.589	-156
3761.273	-159
3763.956	-164
3766.636	-157
3769.315	-162
3771.991	-164
3774.665	-163
3777.338	-167
3780.008	-167
3782.677	-168
3785.343	-162
3788.007	-167
3790.67	-171
3793.33	-168
3795.989	-172
3798.645	-173
3801.299	-175
3803.952	-174
3806.602	-180
3809.251	-180
3811.897	-175
3814.542	-180
3817.184	-178
3819.825	-175
3822.463	-184
3825.1	-183
3827.735	-180
3830.367	-180
3832.998	-185
3835.627	-185
3838.253	-186
3840.878	-178
3843.501	-185
3846.122	-184
3848.741	-184
3851.358	-188
3853.973	-187
3856.586	-187
3859.197	-189
3861.806	-186
3864.414	-188
3867.019	-187
3869.622	-186
3872.224	-189
3874.823	-186
3877.421	-180
3880.016	-181
3882.61	-177
3885.202	-173
3887.792	-180
3890.38	-189
3892.966	-192
3895.55	-190
3898.132	-196
3900.713	-194
3903.291	-198
3905.868	-198
3908.442	-191
3911.015	-195
3913.586	-200
3916.155	-190
3918.722	-201
3921.287	-200
3923.85	-201
3926.411	-201
3928.971	-198
3931.528	-198
3934.084	-200
3936.638	-202
3939.19	-203
3941.74	-201
3944.288	-201
3946.834	-204
3949.378	-203
3951.921	-206
3954.462	-200
3957	-208
3959.537	-207
3962.072	-207
3964.606	-202
3967.137	-204
3969.667	-203
3972.194	-200
3974.72	-199
3977.244	-201
3979.766	-199
3982.286	-198
3984.805	-198
3987.321	-195
3989.836	-200
3992.349	-197
3994.86	-195
3997.369	-194
3999.877	-193
4002.382	-196
4004.886	-196
4007.388	-193
4009.888	-197
4012.386	-200
4014.883	-196
4017.377	-202
4019.87	-202
4022.361	-200
4024.85	-201
4027.338	-206
4029.823	-202
4032.307	-207
4034.789	-203
4037.269	-200
4039.747	-203
4042.224	-204
4044.699	-201
4047.172	-204
4049.643	-197
4052.112	-202
4054.58	-201
4057.046	-198
4059.51	-201
4061.972	-203
4064.432	-198
4066.891	-195
4069.348	-198
4071.803	-200
4074.256	-197
4076.708	-200
4079.158	-204
4081.606	-197
4084.052	-202
4086.497	-204
4088.939	-202
4091.38	-199
4093.819	-196
4096.257	-215
4098.693	-214
4101.127	-213
4103.559	-210
4105.989	-130
4108.418	-126
4110.845	-114
4113.27	-111
4115.694	-95
4118.115	-73
4120.535	-202
4122.954	-202
4125.37	-199
4127.785	-207
4130.198	-205
4132.609	-201
4135.019	-218
4137.427	-215
4139.833	-217
4142.237	-216
