Data from I0.75_T15s_Bsub_water_1-10^4_3_RamanShift_1.txt Node
Date: Mon Mar 13 15:53:06 IST 2017
User: aro
Spectrometer: QEPB0276
Trigger mode: 0
Integration Time (sec): 1.500000E1
Scans to average: 1
Electric dark correction enabled: true
Nonlinearity correction enabled: false
Boxcar width: 0
XAxis mode: Raman Shifts
Number of Pixels in Spectrum: 1044
>>>>>Begin Spectral Data<<<<<
160.701	-84
166.742	5
172.777	277
178.805	1115
184.826	3237
190.841	6960
196.849	11110
202.85	13865
208.845	14550
214.833	14217
220.815	13829
226.789	13578
232.758	13321
238.719	13080
244.674	12840
250.623	12434
256.565	12026
262.5	11584
268.429	11276
274.351	11000
280.267	10717
286.176	10474
292.079	10209
297.975	10019
303.865	9763
309.748	9560
315.625	9391
321.495	9193
327.359	9000
333.217	8900
339.068	8802
344.912	8699
350.751	8645
356.583	8581
362.408	8514
368.227	8480
374.04	8495
379.847	8436
385.647	8492
391.44	8455
397.228	8474
403.009	8467
408.784	8522
414.553	8513
420.315	8492
426.071	8483
431.821	8463
437.565	8473
443.302	8468
449.033	8456
454.758	8407
460.477	8328
466.189	8315
471.896	8323
477.596	8246
483.29	8199
488.978	8215
494.66	8171
500.335	8057
506.005	7983
511.668	7871
517.325	7802
522.977	7717
528.622	7647
534.261	7568
539.894	7536
545.521	7519
551.141	7502
556.756	7472
562.365	7457
567.968	7422
573.565	7360
579.155	7386
584.74	7321
590.319	7302
595.892	7279
601.459	7248
607.02	7222
612.575	7138
618.124	7088
623.667	7045
629.204	7046
634.735	7008
640.261	6895
645.781	6914
651.294	6897
656.802	6906
662.304	6891
667.8	6881
673.29	6829
678.775	6895
684.254	6847
689.726	6848
695.193	6800
700.655	6769
706.11	6762
711.56	6673
717.004	6732
722.442	6647
727.874	6644
733.301	6612
738.722	6646
744.137	6628
749.547	6630
754.951	6622
760.349	6609
765.741	6588
771.128	6615
776.509	6653
781.885	6632
787.254	6652
792.618	6664
797.977	6647
803.33	6559
808.677	6524
814.019	6475
819.355	6455
824.686	6428
830.011	6437
835.33	6407
840.644	6396
845.952	6411
851.255	6430
856.552	6426
861.844	6435
867.13	6439
872.41	6423
877.686	6397
882.955	6352
888.219	6301
893.478	6228
898.731	6122
903.979	6099
909.221	6044
914.458	6042
919.69	6074
924.916	6083
930.136	6081
935.351	6095
940.561	6121
945.766	6154
950.965	6113
956.158	6043
961.347	6007
966.529	5948
971.707	5895
976.879	5864
982.046	5790
987.208	5785
992.364	5788
997.515	5814
1002.66	5901
1007.801	5934
1012.936	5998
1018.066	6075
1023.19	6097
1028.309	6085
1033.423	6100
1038.532	6084
1043.636	6061
1048.734	5999
1053.827	5950
1058.915	5891
1063.998	5840
1069.075	5884
1074.147	5893
1079.214	5921
1084.276	5999
1089.333	6049
1094.385	6076
1099.431	6107
1104.472	6131
1109.509	6118
1114.54	6068
1119.565	6000
1124.586	5964
1129.602	5895
1134.613	5887
1139.618	5873
1144.619	5905
1149.614	5879
1154.604	5944
1159.589	5946
1164.57	5985
1169.545	6035
1174.515	6021
1179.48	5974
1184.44	5960
1189.395	5912
1194.345	5895
1199.29	5885
1204.23	5913
1209.165	5950
1214.095	6031
1219.021	6019
1223.941	6112
1228.856	6134
1233.766	6159
1238.672	6172
1243.572	6177
1248.467	6167
1253.358	6087
1258.244	6019
1263.124	5901
1268	5862
1272.871	5814
1277.737	5780
1282.599	5767
1287.455	5808
1292.306	5794
1297.153	5838
1301.995	5915
1306.832	5927
1311.664	5973
1316.491	6005
1321.314	5970
1326.132	5920
1330.945	5852
1335.753	5748
1340.556	5629
1345.354	5517
1350.148	5468
1354.937	5468
1359.722	5511
1364.501	5534
1369.276	5648
1374.046	5739
1378.811	5797
1383.572	5776
1388.327	5750
1393.079	5698
1397.825	5581
1402.567	5515
1407.304	5475
1412.036	5442
1416.764	5411
1421.487	5413
1426.205	5437
1430.919	5484
1435.628	5538
1440.333	5595
1445.032	5612
1449.727	5612
1454.418	5679
1459.104	5676
1463.785	5605
1468.462	5539
1473.134	5457
1477.802	5436
1482.465	5457
1487.123	5438
1491.777	5435
1496.426	5493
1501.071	5526
1505.711	5609
1510.347	5662
1514.978	5737
1519.604	5779
1524.226	5832
1528.844	5835
1533.457	5842
1538.065	5837
1542.669	5812
1547.269	5807
1551.864	5773
1556.454	5798
1561.041	5806
1565.622	5838
1570.199	5862
1574.772	5912
1579.34	5934
1583.904	6027
1588.464	6083
1593.019	6068
1597.569	6090
1602.115	6107
1606.657	6070
1611.195	6067
1615.728	6075
1620.256	6067
1624.78	6092
1629.3	6159
1633.816	6218
1638.327	6250
1642.834	6313
1647.336	6396
1651.834	6430
1656.328	6436
1660.817	6419
1665.302	6385
1669.783	6298
1674.259	6202
1678.732	6054
1683.199	5899
1687.663	5731
1692.122	5567
1696.577	5479
1701.028	5445
1705.474	5445
1709.917	5409
1714.355	5333
1718.788	5311
1723.218	5222
1727.643	5130
1732.064	5080
1736.481	5016
1740.893	4901
1745.301	4853
1749.705	4753
1754.105	4690
1758.501	4612
1762.893	4520
1767.28	4498
1771.663	4439
1776.042	4419
1780.417	4446
1784.787	4500
1789.154	4518
1793.516	4576
1797.874	4639
1802.228	4691
1806.578	4693
1810.924	4652
1815.266	4621
1819.603	4558
1823.937	4516
1828.266	4457
1832.591	4407
1836.913	4364
1841.23	4351
1845.543	4334
1849.852	4334
1854.156	4352
1858.457	4334
1862.754	4343
1867.047	4348
1871.335	4405
1875.62	4359
1879.9	4372
1884.177	4372
1888.449	4341
1892.718	4358
1896.982	4311
1901.243	4280
1905.499	4309
1909.752	4304
1914	4287
1918.245	4293
1922.485	4314
1926.722	4370
1930.954	4387
1935.183	4378
1939.408	4403
1943.628	4447
1947.845	4446
1952.058	4460
1956.267	4434
1960.472	4384
1964.673	4336
1968.87	4331
1973.063	4297
1977.252	4249
1981.438	4233
1985.619	4188
1989.797	4188
1993.971	4189
1998.14	4170
2002.306	4204
2006.469	4240
2010.627	4194
2014.781	4207
2018.932	4180
2023.078	4172
2027.221	4133
2031.36	4073
2035.495	4069
2039.627	4026
2043.754	3992
2047.878	3974
2051.998	3992
2056.114	3992
2060.226	3994
2064.334	4021
2068.439	4010
2072.54	4052
2076.637	4062
2080.73	4065
2084.82	4074
2088.906	4089
2092.988	4088
2097.066	4065
2101.14	4022
2105.211	4014
2109.278	4006
2113.342	3987
2117.401	3954
2121.457	3993
2125.509	3921
2129.558	3939
2133.602	3918
2137.643	3919
2141.681	3931
2145.714	3921
2149.744	3915
2153.77	3892
2157.793	3852
2161.812	3805
2165.827	3775
2169.838	3755
2173.846	3671
2177.851	3630
2181.851	3597
2185.848	3564
2189.841	3532
2193.831	3514
2197.817	3509
2201.799	3499
2205.778	3492
2209.753	3481
2213.725	3478
2217.693	3483
2221.657	3467
2225.618	3512
2229.575	3487
2233.529	3470
2237.479	3445
2241.425	3419
2245.368	3371
2249.307	3351
2253.243	3324
2257.175	3272
2261.104	3277
2265.029	3240
2268.95	3198
2272.868	3168
2276.783	3123
2280.694	3119
2284.601	3086
2288.505	3108
2292.405	3061
2296.302	3037
2300.195	3008
2304.085	2951
2307.971	2936
2311.854	2902
2315.734	2863
2319.609	2825
2323.482	2765
2327.351	2738
2331.216	2734
2335.078	2723
2338.937	2703
2342.792	2694
2346.643	2686
2350.492	2683
2354.336	2695
2358.178	2705
2362.015	2663
2365.85	2688
2369.681	2721
2373.508	2684
2377.333	2693
2381.153	2702
2384.971	2694
2388.785	2681
2392.595	2647
2396.402	2632
2400.206	2642
2404.007	2603
2407.804	2612
2411.597	2603
2415.388	2601
2419.174	2582
2422.958	2566
2426.738	2579
2430.515	2553
2434.289	2557
2438.059	2532
2441.825	2518
2445.589	2519
2449.349	2484
2453.106	2481
2456.859	2449
2460.61	2440
2464.356	2414
2468.1	2397
2471.84	2403
2475.577	2383
2479.311	2378
2483.041	2371
2486.768	2367
2490.492	2394
2494.213	2389
2497.93	2395
2501.644	2379
2505.355	2387
2509.062	2398
2512.766	2361
2516.467	2395
2520.165	2352
2523.859	2347
2527.551	2329
2531.239	2315
2534.923	2309
2538.605	2290
2542.283	2264
2545.958	2265
2549.63	2273
2553.299	2276
2556.964	2249
2560.626	2237
2564.285	2221
2567.941	2212
2571.594	2197
2575.243	2185
2578.89	2178
2582.533	2178
2586.173	2152
2589.809	2154
2593.443	2151
2597.073	2133
2600.701	2103
2604.325	2134
2607.946	2119
2611.564	2100
2615.178	2118
2618.79	2103
2622.398	2098
2626.004	2079
2629.606	2058
2633.205	2037
2636.801	2018
2640.394	2013
2643.983	1966
2647.57	1962
2651.153	1947
2654.734	1928
2658.311	1909
2661.885	1886
2665.456	1888
2669.025	1863
2672.589	1855
2676.151	1848
2679.71	1821
2683.266	1805
2686.819	1792
2690.368	1760
2693.915	1745
2697.458	1729
2700.999	1696
2704.536	1694
2708.071	1674
2711.602	1657
2715.13	1645
2718.656	1630
2722.178	1647
2725.697	1616
2729.214	1631
2732.727	1630
2736.237	1643
2739.744	1636
2743.249	1638
2746.75	1642
2750.248	1634
2753.743	1656
2757.236	1629
2760.725	1634
2764.211	1632
2767.695	1636
2771.175	1631
2774.652	1611
2778.127	1602
2781.598	1613
2785.067	1588
2788.532	1580
2791.995	1576
2795.455	1560
2798.911	1562
2802.365	1572
2805.816	1546
2809.264	1533
2812.709	1536
2816.151	1521
2819.59	1515
2823.026	1513
2826.46	1505
2829.89	1487
2833.318	1475
2836.742	1476
2840.164	1504
2843.583	1491
2846.999	1476
2850.412	1466
2853.822	1497
2857.229	1504
2860.634	1525
2864.035	1501
2867.434	1513
2870.83	1526
2874.223	1519
2877.613	1518
2881	1517
2884.385	1499
2887.766	1511
2891.145	1488
2894.521	1482
2897.894	1471
2901.264	1465
2904.631	1475
2907.996	1466
2911.358	1463
2914.717	1459
2918.073	1441
2921.426	1458
2924.777	1461
2928.124	1458
2931.469	1487
2934.811	1484
2938.15	1498
2941.487	1508
2944.821	1501
2948.152	1510
2951.48	1511
2954.805	1475
2958.128	1497
2961.447	1509
2964.765	1492
2968.079	1513
2971.39	1533
2974.699	1544
2978.005	1556
2981.308	1565
2984.609	1606
2987.907	1635
2991.202	1656
2994.494	1684
2997.784	1702
3001.07	1751
3004.355	1754
3007.636	1794
3010.915	1801
3014.191	1832
3017.464	1835
3020.734	1829
3024.002	1855
3027.267	1871
3030.53	1855
3033.789	1884
3037.046	1895
3040.301	1929
3043.552	1938
3046.801	1958
3050.048	2000
3053.291	2013
3056.532	2072
3059.771	2113
3063.006	2153
3066.239	2201
3069.469	2236
3072.697	2297
3075.922	2339
3079.144	2377
3082.364	2404
3085.581	2462
3088.795	2481
3092.007	2521
3095.216	2539
3098.423	2610
3101.627	2620
3104.828	2675
3108.026	2725
3111.222	2787
3114.416	2826
3117.607	2907
3120.795	2919
3123.98	2960
3127.163	3037
3130.344	3079
3133.521	3144
3136.696	3185
3139.869	3221
3143.039	3284
3146.206	3327
3149.371	3340
3152.533	3372
3155.693	3397
3158.85	3396
3162.005	3418
3165.157	3438
3168.306	3426
3171.453	3463
3174.597	3443
3177.739	3461
3180.878	3442
3184.014	3456
3187.149	3461
3190.28	3445
3193.409	3473
3196.536	3452
3199.659	3492
3202.781	3471
3205.9	3489
3209.016	3482
3212.13	3485
3215.241	3456
3218.35	3411
3221.456	3392
3224.56	3378
3227.661	3363
3230.76	3307
3233.856	3293
3236.95	3248
3240.041	3224
3243.13	3225
3246.216	3186
3249.3	3168
3252.382	3172
3255.46	3155
3258.537	3123
3261.611	3136
3264.682	3137
3267.751	3108
3270.818	3093
3273.882	3097
3276.943	3049
3280.002	3038
3283.059	3027
3286.113	2977
3289.165	2944
3292.214	2890
3295.261	2857
3298.306	2809
3301.348	2745
3304.387	2717
3307.425	2691
3310.459	2649
3313.492	2609
3316.521	2570
3319.549	2552
3322.574	2503
3325.597	2485
3328.617	2475
3331.635	2466
3334.65	2434
3337.663	2424
3340.674	2399
3343.682	2394
3346.688	2400
3349.691	2398
3352.692	2377
3355.691	2344
3358.687	2314
3361.681	2312
3364.673	2271
3367.662	2228
3370.649	2229
3373.633	2164
3376.615	2136
3379.595	2131
3382.572	2089
3385.547	2068
3388.52	2054
3391.49	2006
3394.458	1985
3397.424	1965
3400.387	1927
3403.348	1903
3406.307	1886
3409.263	1885
3412.217	1873
3415.168	1836
3418.118	1808
3421.065	1775
3424.009	1783
3426.951	1758
3429.891	1726
3432.829	1700
3435.764	1665
3438.697	1634
3441.628	1588
3444.557	1561
3447.483	1508
3450.407	1470
3453.328	1407
3456.247	1393
3459.164	1337
3462.079	1305
3464.991	1271
3467.902	1237
3470.809	1203
3473.715	1156
3476.618	1132
3479.519	1098
3482.418	1077
3485.315	1046
3488.209	1028
3491.101	981
3493.99	977
3496.878	928
3499.763	918
3502.646	887
3505.527	871
3508.405	819
3511.281	791
3514.155	759
3517.027	735
3519.897	705
3522.764	669
3525.629	635
3528.492	606
3531.352	566
3534.211	549
3537.067	511
3539.921	491
3542.773	452
3545.622	430
3548.469	397
3551.315	375
3554.157	357
3556.998	332
3559.837	326
3562.673	300
3565.507	278
3568.339	265
3571.169	248
3573.996	233
3576.822	215
3579.645	192
3582.466	184
3585.285	170
3588.101	150
3590.916	132
3593.728	106
3596.538	115
3599.346	95
3602.152	70
3604.956	60
3607.757	56
3610.556	45
3613.354	29
3616.149	14
3618.942	3
3621.732	-5
3624.521	-10
3627.307	-19
3630.092	-29
3632.874	-39
3635.654	-36
3638.432	-52
3641.208	-52
3643.982	-60
3646.753	-73
3649.523	-87
3652.29	-95
3655.055	-93
3657.818	-107
3660.579	-122
3663.338	-126
3666.095	-127
3668.849	-148
3671.602	-147
3674.352	-156
3677.101	-161
3679.847	-167
3682.591	-176
3685.333	-184
3688.073	-182
3690.811	-182
3693.547	-192
3696.281	-191
3699.013	-199
3701.742	-203
3704.47	-206
3707.195	-208
3709.919	-215
3712.64	-213
3715.359	-224
3718.076	-225
3720.792	-222
3723.505	-232
3726.216	-229
3728.925	-238
3731.632	-237
3734.336	-240
3737.039	-236
3739.74	-244
3742.439	-248
3745.136	-245
3747.83	-247
3750.523	-246
3753.213	-244
3755.902	-253
3758.589	-253
3761.273	-253
3763.956	-255
3766.636	-252
3769.315	-259
3771.991	-259
3774.665	-261
3777.338	-263
3780.008	-262
3782.677	-265
3785.343	-261
3788.007	-265
3790.67	-273
3793.33	-269
3795.989	-267
3798.645	-274
3801.299	-277
3803.952	-279
3806.602	-280
3809.251	-277
3811.897	-280
3814.542	-285
3817.184	-282
3819.825	-281
3822.463	-286
3825.1	-284
3827.735	-290
3830.367	-291
3832.998	-286
3835.627	-291
3838.253	-295
3840.878	-289
3843.501	-294
3846.122	-295
3848.741	-301
3851.358	-293
3853.973	-295
3856.586	-298
3859.197	-296
3861.806	-297
3864.414	-298
3867.019	-299
3869.622	-303
3872.224	-298
3874.823	-295
3877.421	-293
3880.016	-284
3882.61	-275
3885.202	-283
3887.792	-283
3890.38	-288
3892.966	-294
3895.55	-301
3898.132	-301
3900.713	-299
3903.291	-299
3905.868	-308
3908.442	-308
3911.015	-310
3913.586	-315
3916.155	-313
3918.722	-306
3921.287	-306
3923.85	-307
3926.411	-309
3928.971	-315
3931.528	-311
3934.084	-311
3936.638	-313
3939.19	-312
3941.74	-314
3944.288	-314
3946.834	-320
3949.378	-313
3951.921	-316
3954.462	-317
3957	-318
3959.537	-322
3962.072	-315
3964.606	-316
3967.137	-314
3969.667	-314
3972.194	-315
3974.72	-315
3977.244	-311
3979.766	-307
3982.286	-316
3984.805	-310
3987.321	-305
3989.836	-312
3992.349	-309
3994.86	-305
3997.369	-306
3999.877	-310
4002.382	-309
4004.886	-302
4007.388	-307
4009.888	-307
4012.386	-306
4014.883	-309
4017.377	-308
4019.87	-304
4022.361	-304
4024.85	-303
4027.338	-309
4029.823	-308
4032.307	-312
4034.789	-314
4037.269	-309
4039.747	-312
4042.224	-313
4044.699	-313
4047.172	-310
4049.643	-312
4052.112	-310
4054.58	-314
4057.046	-312
4059.51	-314
4061.972	-319
4064.432	-312
4066.891	-314
4069.348	-314
4071.803	-317
4074.256	-314
4076.708	-314
4079.158	-317
4081.606	-318
4084.052	-316
4086.497	-317
4088.939	-317
4091.38	-322
4093.819	-312
4096.257	-332
4098.693	-332
4101.127	-330
4103.559	-326
4105.989	-212
4108.418	-203
4110.845	-188
4113.27	-178
4115.694	-159
4118.115	-128
4120.535	-318
4122.954	-319
4125.37	-313
4127.785	-317
4130.198	-319
4132.609	-316
4135.019	-328
4137.427	-329
4139.833	-325
4142.237	-331
