Data from 0.125per_RamanShift_02.txt Node
Date: Mon Mar 19 11:40:14 IST 2018
User: aro
Spectrometer: QEPB0276
Trigger mode: 0
Integration Time (sec): 5.000000E0
Scans to average: 1
Electric dark correction enabled: true
Nonlinearity correction enabled: false
Boxcar width: 0
XAxis mode: Raman Shifts
Number of Pixels in Spectrum: 1044
>>>>>Begin Spectral Data<<<<<
160.701	1.1
166.742	-1.9
172.777	5.1
178.805	13.1
184.826	27.1
190.841	51.1
196.849	85.1
202.85	109.1
208.845	118.1
214.833	122.1
220.815	113.1
226.789	113.1
232.758	116.1
238.719	122.1
244.674	118.1
250.623	127.1
256.565	125.1
262.5	125.1
268.429	126.1
274.351	121.1
280.267	122.1
286.176	119.1
292.079	120.1
297.975	128.1
303.865	122.1
309.748	131.1
315.625	132.1
321.495	127.1
327.359	130.1
333.217	134.1
339.068	132.1
344.912	131.1
350.751	126.1
356.583	129.1
362.408	119.1
368.227	129.1
374.04	128.1
379.847	135.1
385.647	143.1
391.44	149.1
397.228	154.1
403.009	162.1
408.784	165.1
414.553	161.1
420.315	165.1
426.071	175.1
431.821	154.1
437.565	140.1
443.302	133.1
449.033	134.1
454.758	139.1
460.477	132.1
466.189	132.1
471.896	129.1
477.596	122.1
483.29	125.1
488.978	116.1
494.66	117.1
500.335	122.1
506.005	111.1
511.668	111.1
517.325	103.1
522.977	92.1
528.622	98.1
534.261	94.1
539.894	87.1
545.521	86.1
551.141	83.1
556.756	81.1
562.365	79.1
567.968	79.1
573.565	79.1
579.155	74.1
584.74	77.1
590.319	74.1
595.892	75.1
601.459	76.1
607.02	74.1
612.575	71.1
618.124	73.1
623.667	71.1
629.204	70.1
634.735	68.1
640.261	70.1
645.781	74.1
651.294	85.1
656.802	79.1
662.304	72.1
667.8	66.1
673.29	64.1
678.775	64.1
684.254	66.1
689.726	66.1
695.193	64.1
700.655	66.1
706.11	63.1
711.56	62.1
717.004	61.1
722.442	57.1
727.874	60.1
733.301	60.1
738.722	62.1
744.137	64.1
749.547	61.1
754.951	66.1
760.349	69.1
765.741	68.1
771.128	68.1
776.509	64.1
781.885	68.1
787.254	67.1
792.618	68.1
797.977	74.1
803.33	84.1
808.677	105.1
814.019	119.1
819.355	113.1
824.686	96.1
830.011	82.1
835.33	83.1
840.644	91.1
845.952	101.1
851.255	97.1
856.552	87.1
861.844	71.1
867.13	70.1
872.41	69.1
877.686	64.1
882.955	59.1
888.219	58.1
893.478	56.1
898.731	55.1
903.979	62.1
909.221	66.1
914.458	59.1
919.69	55.1
924.916	54.1
930.136	53.1
935.351	57.1
940.561	56.1
945.766	64.1
950.965	58.1
956.158	59.1
961.347	59.1
966.529	66.1
971.707	62.1
976.879	72.1
982.046	71.1
987.208	66.1
992.364	59.1
997.515	63.1
1002.66	67.1
1007.801	67.1
1012.936	58.1
1018.066	58.1
1023.19	53.1
1028.309	57.1
1033.423	62.1
1038.532	70.1
1043.636	73.1
1048.734	70.1
1053.827	62.1
1058.915	58.1
1063.998	50.1
1069.075	50.1
1074.147	47.1
1079.214	51.1
1084.276	50.1
1089.333	55.1
1094.385	57.1
1099.431	60.1
1104.472	56.1
1109.509	56.1
1114.54	49.1
1119.565	52.1
1124.586	52.1
1129.602	45.1
1134.613	49.1
1139.618	51.1
1144.619	60.1
1149.614	72.1
1154.604	87.1
1159.589	97.1
1164.57	93.1
1169.545	84.1
1174.515	74.1
1179.48	71.1
1184.44	59.1
1189.395	50.1
1194.345	52.1
1199.29	52.1
1204.23	53.1
1209.165	49.1
1214.095	51.1
1219.021	61.1
1223.941	70.1
1228.856	58.1
1233.766	57.1
1238.672	56.1
1243.572	53.1
1248.467	48.1
1253.358	46.1
1258.244	55.1
1263.124	52.1
1268	48.1
1272.871	45.1
1277.737	46.1
1282.599	45.1
1287.455	44.1
1292.306	45.1
1297.153	48.1
1301.995	51.1
1306.832	54.1
1311.664	54.1
1316.491	55.1
1321.314	56.1
1326.132	71.1
1330.945	79.1
1335.753	91.1
1340.556	82.1
1345.354	63.1
1350.148	56.1
1354.937	55.1
1359.722	60.1
1364.501	64.1
1369.276	66.1
1374.046	55.1
1378.811	47.1
1383.572	38.1
1388.327	43.1
1393.079	37.1
1397.825	38.1
1402.567	42.1
1407.304	42.1
1412.036	41.1
1416.764	38.1
1421.487	36.1
1426.205	36.1
1430.919	38.1
1435.628	52.1
1440.333	61.1
1445.032	66.1
1449.727	74.1
1454.418	86.1
1459.104	96.1
1463.785	108.1
1468.462	98.1
1473.134	78.1
1477.802	57.1
1482.465	45.1
1487.123	41.1
1491.777	40.1
1496.426	39.1
1501.071	35.1
1505.711	37.1
1510.347	37.1
1514.978	34.1
1519.604	37.1
1524.226	32.1
1528.844	30.1
1533.457	32.1
1538.065	36.1
1542.669	33.1
1547.269	33.1
1551.864	31.1
1556.454	35.1
1561.041	32.1
1565.622	27.1
1570.199	29.1
1574.772	29.1
1579.34	26.1
1583.904	30.1
1588.464	33.1
1593.019	31.1
1597.569	32.1
1602.115	32.1
1606.657	27.1
1611.195	29.1
1615.728	33.1
1620.256	32.1
1624.78	29.1
1629.3	28.1
1633.816	29.1
1638.327	33.1
1642.834	31.1
1647.336	29.1
1651.834	29.1
1656.328	27.1
1660.817	29.1
1665.302	30.1
1669.783	28.1
1674.259	25.1
1678.732	26.1
1683.199	28.1
1687.663	28.1
1692.122	27.1
1696.577	25.1
1701.028	26.1
1705.474	27.1
1709.917	27.1
1714.355	22.1
1718.788	25.1
1723.218	23.1
1727.643	24.1
1732.064	25.1
1736.481	22.1
1740.893	26.1
1745.301	28.1
1749.705	21.1
1754.105	24.1
1758.501	20.1
1762.893	20.1
1767.28	17.1
1771.663	19.1
1776.042	17.1
1780.417	19.1
1784.787	24.1
1789.154	20.1
1793.516	23.1
1797.874	16.1
1802.228	16.1
1806.578	17.1
1810.924	26.1
1815.266	17.1
1819.603	18.1
1823.937	26.1
1828.266	20.1
1832.591	21.1
1836.913	15.1
1841.23	19.1
1845.543	20.1
1849.852	15.1
1854.156	16.1
1858.457	19.1
1862.754	26.1
1867.047	20.1
1871.335	23.1
1875.62	21.1
1879.9	18.1
1884.177	18.1
1888.449	13.1
1892.718	16.1
1896.982	16.1
1901.243	21.1
1905.499	19.1
1909.752	19.1
1914	23.1
1918.245	15.1
1922.485	16.1
1926.722	16.1
1930.954	17.1
1935.183	14.1
1939.408	21.1
1943.628	17.1
1947.845	20.1
1952.058	22.1
1956.267	16.1
1960.472	14.1
1964.673	15.1
1968.87	12.1
1973.063	15.1
1977.252	10.1
1981.438	16.1
1985.619	15.1
1989.797	14.1
1993.971	14.1
1998.14	11.1
2002.306	11.1
2006.469	15.1
2010.627	13.1
2014.781	16.1
2018.932	15.1
2023.078	13.1
2027.221	12.1
2031.36	10.1
2035.495	13.1
2039.627	14.1
2043.754	13.1
2047.878	17.1
2051.998	17.1
2056.114	12.1
2060.226	16.1
2064.334	7.1
2068.439	7.1
2072.54	11.1
2076.637	12.1
2080.73	14.1
2084.82	16.1
2088.906	16.1
2092.988	15.1
2097.066	11.1
2101.14	14.1
2105.211	11.1
2109.278	11.1
2113.342	11.1
2117.401	10.1
2121.457	13.1
2125.509	14.1
2129.558	12.1
2133.602	13.1
2137.643	8.1
2141.681	11.1
2145.714	9.1
2149.744	9.1
2153.77	8.1
2157.793	14.1
2161.812	15.1
2165.827	13.1
2169.838	11.1
2173.846	11.1
2177.851	9.1
2181.851	6.1
2185.848	9.1
2189.841	10.1
2193.831	6.1
2197.817	10.1
2201.799	9.1
2205.778	9.1
2209.753	4.1
2213.725	8.1
2217.693	11.1
2221.657	7.1
2225.618	8.1
2229.575	9.1
2233.529	7.1
2237.479	6.1
2241.425	4.1
2245.368	5.1
2249.307	5.1
2253.243	9.1
2257.175	5.1
2261.104	12.1
2265.029	4.1
2268.95	4.1
2272.868	3.1
2276.783	3.1
2280.694	7.1
2284.601	5.1
2288.505	6.1
2292.405	8.1
2296.302	10.1
2300.195	8.1
2304.085	7.1
2307.971	5.1
2311.854	4.1
2315.734	3.1
2319.609	4.1
2323.482	6.1
2327.351	6.1
2331.216	7.1
2335.078	7.1
2338.937	8.1
2342.792	3.1
2346.643	1.1
2350.492	5.1
2354.336	2.1
2358.178	3.1
2362.015	3.1
2365.85	5.1
2369.681	7.1
2373.508	1.1
2377.333	4.1
2381.153	7.1
2384.971	6.1
2388.785	9.1
2392.595	9.1
2396.402	9.1
2400.206	8.1
2404.007	-0.9
2407.804	1.1
2411.597	2.1
2415.388	3.1
2419.174	5.1
2422.958	10.1
2426.738	5.1
2430.515	9.1
2434.289	4.1
2438.059	3.1
2441.825	1.1
2445.589	1.1
2449.349	1.1
2453.106	4.1
2456.859	5.1
2460.61	5.1
2464.356	10.1
2468.1	5.1
2471.84	3.1
2475.577	3.1
2479.311	5.1
2483.041	5.1
2486.768	2.1
2490.492	0.1
2494.213	4.1
2497.93	1.1
2501.644	4.1
2505.355	3.1
2509.062	1.1
2512.766	3.1
2516.467	4.1
2520.165	2.1
2523.859	4.1
2527.551	-0.9
2531.239	2.1
2534.923	3.1
2538.605	2.1
2542.283	-1.9
2545.958	5.1
2549.63	5.1
2553.299	5.1
2556.964	3.1
2560.626	3.1
2564.285	-2.9
2567.941	1.1
2571.594	0.1
2575.243	-2.9
2578.89	6.1
2582.533	4.1
2586.173	4.1
2589.809	6.1
2593.443	6.1
2597.073	5.1
2600.701	0.1
2604.325	0.1
2607.946	1.1
2611.564	7.1
2615.178	5.1
2618.79	4.1
2622.398	6.1
2626.004	6.1
2629.606	7.1
2633.205	3.1
2636.801	2.1
2640.394	0.1
2643.983	3.1
2647.57	4.1
2651.153	6.1
2654.734	6.1
2658.311	4.1
2661.885	8.1
2665.456	6.1
2669.025	3.1
2672.589	3.1
2676.151	4.1
2679.71	4.1
2683.266	-1.9
2686.819	3.1
2690.368	2.1
2693.915	3.1
2697.458	3.1
2700.999	8.1
2704.536	4.1
2708.071	8.1
2711.602	6.1
2715.13	6.1
2718.656	4.1
2722.178	4.1
2725.697	5.1
2729.214	6.1
2732.727	7.1
2736.237	6.1
2739.744	8.1
2743.249	15.1
2746.75	8.1
2750.248	4.1
2753.743	2.1
2757.236	5.1
2760.725	0.1
2764.211	4.1
2767.695	2.1
2771.175	3.1
2774.652	4.1
2778.127	5.1
2781.598	5.1
2785.067	2.1
2788.532	2.1
2791.995	1.1
2795.455	3.1
2798.911	2.1
2802.365	2.1
2805.816	4.1
2809.264	5.1
2812.709	7.1
2816.151	8.1
2819.59	3.1
2823.026	6.1
2826.46	4.1
2829.89	10.1
2833.318	10.1
2836.742	15.1
2840.164	22.1
2843.583	26.1
2846.999	25.1
2850.412	29.1
2853.822	24.1
2857.229	21.1
2860.634	23.1
2864.035	25.1
2867.434	32.1
2870.83	36.1
2874.223	43.1
2877.613	46.1
2881	44.1
2884.385	47.1
2887.766	55.1
2891.145	51.1
2894.521	53.1
2897.894	48.1
2901.264	46.1
2904.631	40.1
2907.996	45.1
2911.358	41.1
2914.717	33.1
2918.073	32.1
2921.426	33.1
2924.777	35.1
2928.124	31.1
2931.469	29.1
2934.811	27.1
2938.15	24.1
2941.487	20.1
2944.821	21.1
2948.152	19.1
2951.48	23.1
2954.805	23.1
2958.128	32.1
2961.447	25.1
2964.765	27.1
2968.079	25.1
2971.39	19.1
2974.699	17.1
2978.005	13.1
2981.308	12.1
2984.609	3.1
2987.907	7.1
2991.202	11.1
2994.494	8.1
2997.784	8.1
3001.07	9.1
3004.355	3.1
3007.636	6.1
3010.915	4.1
3014.191	1.1
3017.464	-0.9
3020.734	4.1
3024.002	3.1
3027.267	6.1
3030.53	7.1
3033.789	7.1
3037.046	0.1
3040.301	3.1
3043.552	-1.9
3046.801	2.1
3050.048	1.1
3053.291	-0.9
3056.532	3.1
3059.771	6.1
3063.006	3.1
3066.239	3.1
3069.469	6.1
3072.697	1.1
3075.922	-0.9
3079.144	1.1
3082.364	2.1
3085.581	4.1
3088.795	7.1
3092.007	4.1
3095.216	4.1
3098.423	2.1
3101.627	2.1
3104.828	5.1
3108.026	2.1
3111.222	0.1
3114.416	3.1
3117.607	3.1
3120.795	6.1
3123.98	5.1
3127.163	5.1
3130.344	4.1
3133.521	6.1
3136.696	5.1
3139.869	7.1
3143.039	4.1
3146.206	4.1
3149.371	5.1
3152.533	5.1
3155.693	2.1
3158.85	6.1
3162.005	4.1
3165.157	5.1
3168.306	1.1
3171.453	6.1
3174.597	8.1
3177.739	5.1
3180.878	4.1
3184.014	2.1
3187.149	2.1
3190.28	4.1
3193.409	5.1
3196.536	5.1
3199.659	6.1
3202.781	6.1
3205.9	6.1
3209.016	4.1
3212.13	3.1
3215.241	3.1
3218.35	6.1
3221.456	4.1
3224.56	4.1
3227.661	4.1
3230.76	8.1
3233.856	7.1
3236.95	6.1
3240.041	3.1
3243.13	-1.9
3246.216	-0.9
3249.3	4.1
3252.382	3.1
3255.46	6.1
3258.537	3.1
3261.611	9.1
3264.682	6.1
3267.751	5.1
3270.818	0.1
3273.882	0.1
3276.943	2.1
3280.002	1.1
3283.059	0.1
3286.113	6.1
3289.165	3.1
3292.214	2.1
3295.261	3.1
3298.306	1.1
3301.348	0.1
3304.387	-2.9
3307.425	2.1
3310.459	5.1
3313.492	0.1
3316.521	1.1
3319.549	3.1
3322.574	2.1
3325.597	2.1
3328.617	1.1
3331.635	0.1
3334.65	-1.9
3337.663	2.1
3340.674	6.1
3343.682	4.1
3346.688	5.1
3349.691	5.1
3352.692	2.1
3355.691	0.1
3358.687	-3.9
3361.681	4.1
3364.673	6.1
3367.662	0.1
3370.649	5.1
3373.633	2.1
3376.615	2.1
3379.595	-1.9
3382.572	6.1
3385.547	3.1
3388.52	-0.9
3391.49	4.1
3394.458	0.1
3397.424	0.1
3400.387	0.1
3403.348	-1.9
3406.307	-1.9
3409.263	1.1
3412.217	3.1
3415.168	2.1
3418.118	1.1
3421.065	3.1
3424.009	0.1
3426.951	-0.9
3429.891	0.1
3432.829	-2.9
3435.764	2.1
3438.697	-1.9
3441.628	0.1
3444.557	1.1
3447.483	4.1
3450.407	1.1
3453.328	3.1
3456.247	-2.9
3459.164	-2.9
3462.079	-3.9
3464.991	-0.9
3467.902	1.1
3470.809	2.1
3473.715	3.1
3476.618	2.1
3479.519	0.1
3482.418	-1.9
3485.315	-2.9
3488.209	-1.9
3491.101	-1.9
3493.99	-4.9
3496.878	0.1
3499.763	0.1
3502.646	1.1
3505.527	0.1
3508.405	2.1
3511.281	-2.9
3514.155	-0.9
3517.027	-1.9
3519.897	-0.9
3522.764	-3.9
3525.629	-0.9
3528.492	-0.9
3531.352	1.1
3534.211	1.1
3537.067	-5.9
3539.921	-4.9
3542.773	-2.9
3545.622	-0.9
3548.469	-4.9
3551.315	1.1
3554.157	-1.9
3556.998	2.1
3559.837	-4.9
3562.673	-4.9
3565.507	-2.9
3568.339	-1.9
3571.169	-1.9
3573.996	0.1
3576.822	-5.9
3579.645	-2.9
3582.466	-5.9
3585.285	-0.9
3588.101	-3.9
3590.916	1.1
3593.728	1.1
3596.538	-1.9
3599.346	-1.9
3602.152	-4.9
3604.956	-6.9
3607.757	-3.9
3610.556	-1.9
3613.354	-0.9
3616.149	-0.9
3618.942	1.1
3621.732	2.1
3624.521	1.1
3627.307	-2.9
3630.092	-3.9
3632.874	-3.9
3635.654	-2.9
3638.432	-4.9
3641.208	-1.9
3643.982	0.1
3646.753	-0.9
3649.523	-4.9
3652.29	2.1
3655.055	-2.9
3657.818	-4.9
3660.579	-2.9
3663.338	-2.9
3666.095	-1.9
3668.849	-1.9
3671.602	-1.9
3674.352	0.1
3677.101	-0.9
3679.847	-2.9
3682.591	0.1
3685.333	-1.9
3688.073	-1.9
3690.811	1.1
3693.547	2.1
3696.281	-2.9
3699.013	-5.9
3701.742	-4.9
3704.47	-9.9
3707.195	-4.9
3709.919	-2.9
3712.64	-1.9
3715.359	2.1
3718.076	1.1
3720.792	-3.9
3723.505	-1.9
3726.216	-3.9
3728.925	-3.9
3731.632	-3.9
3734.336	-8.9
3737.039	0.1
3739.74	-1.9
3742.439	-2.9
3745.136	-0.9
3747.83	-2.9
3750.523	-5.9
3753.213	-5.9
3755.902	-4.9
3758.589	-2.9
3761.273	-4.9
3763.956	-2.9
3766.636	-5.9
3769.315	-2.9
3771.991	-2.9
3774.665	-1.9
3777.338	-0.9
3780.008	-0.9
3782.677	-5.9
3785.343	-6.9
3788.007	-4.9
3790.67	-0.9
3793.33	-3.9
3795.989	-2.9
3798.645	-3.9
3801.299	-0.9
3803.952	-1.9
3806.602	-2.9
3809.251	-1.9
3811.897	-2.9
3814.542	-4.9
3817.184	-4.9
3819.825	-6.9
3822.463	-3.9
3825.1	-4.9
3827.735	-1.9
3830.367	1.1
3832.998	-1.9
3835.627	0.1
3838.253	0.1
3840.878	-6.9
3843.501	-4.9
3846.122	-6.9
3848.741	-5.9
3851.358	-1.9
3853.973	4.1
3856.586	0.1
3859.197	1.1
3861.806	-5.9
3864.414	-4.9
3867.019	-6.9
3869.622	-7.9
3872.224	-3.9
3874.823	-3.9
3877.421	-0.9
3880.016	-2.9
3882.61	0.1
3885.202	4.1
3887.792	-0.9
3890.38	1.1
3892.966	-3.9
3895.55	-4.9
3898.132	-1.9
3900.713	-2.9
3903.291	-5.9
3905.868	-3.9
3908.442	-2.9
3911.015	-5.9
3913.586	0.1
3916.155	-0.9
3918.722	0.1
3921.287	-1.9
3923.85	-3.9
3926.411	-2.9
3928.971	-6.9
3931.528	-4.9
3934.084	-4.9
3936.638	-1.9
3939.19	-4.9
3941.74	-0.9
3944.288	-3.9
3946.834	0.1
3949.378	1.1
3951.921	-2.9
3954.462	-4.9
3957	-5.9
3959.537	-2.9
3962.072	-2.9
3964.606	-0.9
3967.137	0.1
3969.667	-1.9
3972.194	-2.9
3974.72	-2.9
3977.244	-4.9
3979.766	2.1
3982.286	-7.9
3984.805	-5.9
3987.321	-3.9
3989.836	-3.9
3992.349	1.1
3994.86	1.1
3997.369	-4.9
3999.877	0.1
4002.382	-3.9
4004.886	-4.9
4007.388	-1.9
4009.888	-6.9
4012.386	-1.9
4014.883	-4.9
4017.377	-1.9
4019.87	-3.9
4022.361	-1.9
4024.85	-2.9
4027.338	-2.9
4029.823	-2.9
4032.307	-0.9
4034.789	-3.9
4037.269	-2.9
4039.747	-0.9
4042.224	-1.9
4044.699	-0.9
4047.172	-2.9
4049.643	-3.9
4052.112	-0.9
4054.58	-2.9
4057.046	-3.9
4059.51	-3.9
4061.972	-2.9
4064.432	-4.9
4066.891	-2.9
4069.348	-0.9
4071.803	-2.9
4074.256	-6.9
4076.708	0.1
4079.158	-0.9
4081.606	-1.9
4084.052	-1.9
4086.497	-1.9
4088.939	-1.9
4091.38	-2.9
4093.819	-3.9
4096.257	-2.9
4098.693	-5.9
4101.127	-4.9
4103.559	-2.9
4105.989	2.1
4108.418	3.1
4110.845	1.1
4113.27	1.1
4115.694	0.1
4118.115	6.1
4120.535	-3.9
4122.954	-2.9
4125.37	-3.9
4127.785	-0.9
4130.198	2.1
4132.609	-0.9
4135.019	-2.9
4137.427	-2.9
4139.833	-4.9
4142.237	-6.9
