Data from dark 5sec_RamanShift_03.txt Node
Date: Wed Mar 21 14:36:17 IST 2018
User: aro
Spectrometer: QEPB0276
Trigger mode: 0
Integration Time (sec): 5.000000E0
Scans to average: 1
Electric dark correction enabled: true
Nonlinearity correction enabled: false
Boxcar width: 0
XAxis mode: Raman Shifts
Number of Pixels in Spectrum: 1044
>>>>>Begin Spectral Data<<<<<
160.701	0.1
166.742	2.1
172.777	-0.9
178.805	0.1
184.826	-1.9
190.841	-1.9
196.849	-1.9
202.85	-2.9
208.845	-0.9
214.833	-3.9
220.815	-3.9
226.789	-1.9
232.758	0.1
238.719	2.1
244.674	1.1
250.623	4.1
256.565	1.1
262.5	-0.9
268.429	0.1
274.351	0.1
280.267	5.1
286.176	-2.9
292.079	-4.9
297.975	-0.9
303.865	-2.9
309.748	-2.9
315.625	-2.9
321.495	-0.9
327.359	1.1
333.217	-1.9
339.068	0.1
344.912	-2.9
350.751	2.1
356.583	2.1
362.408	1.1
368.227	3.1
374.04	7.1
379.847	1.1
385.647	2.1
391.44	-2.9
397.228	-1.9
403.009	-0.9
408.784	-1.9
414.553	-1.9
420.315	-2.9
426.071	2.1
431.821	-2.9
437.565	-1.9
443.302	0.1
449.033	0.1
454.758	-2.9
460.477	-0.9
466.189	2.1
471.896	-0.9
477.596	-0.9
483.29	3.1
488.978	1.1
494.66	0.1
500.335	1.1
506.005	-0.9
511.668	-3.9
517.325	-2.9
522.977	-2.9
528.622	-4.9
534.261	0.1
539.894	-0.9
545.521	5.1
551.141	3.1
556.756	2.1
562.365	2.1
567.968	0.1
573.565	-2.9
579.155	-0.9
584.74	-1.9
590.319	-1.9
595.892	0.1
601.459	1.1
607.02	3.1
612.575	-0.9
618.124	-3.9
623.667	-1.9
629.204	1.1
634.735	0.1
640.261	0.1
645.781	2.1
651.294	0.1
656.802	2.1
662.304	6.1
667.8	-0.9
673.29	-2.9
678.775	1.1
684.254	0.1
689.726	-3.9
695.193	-2.9
700.655	-1.9
706.11	-5.9
711.56	0.1
717.004	-0.9
722.442	0.1
727.874	4.1
733.301	-0.9
738.722	-1.9
744.137	-0.9
749.547	-2.9
754.951	-1.9
760.349	3.1
765.741	2.1
771.128	3.1
776.509	3.1
781.885	0.1
787.254	-0.9
792.618	-0.9
797.977	-4.9
803.33	-7.9
808.677	-4.9
814.019	-0.9
819.355	-3.9
824.686	-0.9
830.011	-0.9
835.33	1.1
840.644	3.1
845.952	2.1
851.255	2.1
856.552	-1.9
861.844	-3.9
867.13	1.1
872.41	-2.9
877.686	-1.9
882.955	2.1
888.219	-0.9
893.478	-2.9
898.731	-1.9
903.979	-6.9
909.221	-2.9
914.458	-4.9
919.69	-5.9
924.916	1.1
930.136	-0.9
935.351	1.1
940.561	4.1
945.766	4.1
950.965	0.1
956.158	0.1
961.347	0.1
966.529	-0.9
971.707	1.1
976.879	-2.9
982.046	-3.9
987.208	-0.9
992.364	-0.9
997.515	-0.9
1002.66	-2.9
1007.801	-5.9
1012.936	-3.9
1018.066	-3.9
1023.19	1.1
1028.309	-1.9
1033.423	0.1
1038.532	2.1
1043.636	2.1
1048.734	3.1
1053.827	-1.9
1058.915	-1.9
1063.998	1.1
1069.075	-2.9
1074.147	-2.9
1079.214	-4.9
1084.276	-2.9
1089.333	-1.9
1094.385	1.1
1099.431	0.1
1104.472	-2.9
1109.509	0.1
1114.54	-3.9
1119.565	-2.9
1124.586	-0.9
1129.602	-2.9
1134.613	-1.9
1139.618	2.1
1144.619	3.1
1149.614	5.1
1154.604	2.1
1159.589	-1.9
1164.57	-3.9
1169.545	-0.9
1174.515	-1.9
1179.48	0.1
1184.44	1.1
1189.395	-0.9
1194.345	-0.9
1199.29	4.1
1204.23	-0.9
1209.165	-3.9
1214.095	-1.9
1219.021	-0.9
1223.941	0.1
1228.856	1.1
1233.766	0.1
1238.672	0.1
1243.572	2.1
1248.467	2.1
1253.358	-3.9
1258.244	-3.9
1263.124	-4.9
1268	-5.9
1272.871	-3.9
1277.737	-5.9
1282.599	2.1
1287.455	0.1
1292.306	-1.9
1297.153	3.1
1301.995	3.1
1306.832	-2.9
1311.664	0.1
1316.491	-2.9
1321.314	1.1
1326.132	0.1
1330.945	-1.9
1335.753	1.1
1340.556	0.1
1345.354	-2.9
1350.148	1.1
1354.937	-3.9
1359.722	-2.9
1364.501	-6.9
1369.276	1.1
1374.046	-0.9
1378.811	1.1
1383.572	3.1
1388.327	0.1
1393.079	2.1
1397.825	-2.9
1402.567	-0.9
1407.304	1.1
1412.036	0.1
1416.764	-3.9
1421.487	-4.9
1426.205	-1.9
1430.919	-0.9
1435.628	-2.9
1440.333	-1.9
1445.032	-3.9
1449.727	-2.9
1454.418	-3.9
1459.104	0.1
1463.785	1.1
1468.462	3.1
1473.134	1.1
1477.802	1.1
1482.465	1.1
1487.123	0.1
1491.777	0.1
1496.426	-5.9
1501.071	-1.9
1505.711	-1.9
1510.347	-2.9
1514.978	-6.9
1519.604	-1.9
1524.226	0.1
1528.844	-1.9
1533.457	2.1
1538.065	2.1
1542.669	1.1
1547.269	-2.9
1551.864	-1.9
1556.454	2.1
1561.041	0.1
1565.622	3.1
1570.199	2.1
1574.772	1.1
1579.34	1.1
1583.904	-1.9
1588.464	-3.9
1593.019	-9.9
1597.569	-3.9
1602.115	-3.9
1606.657	-1.9
1611.195	3.1
1615.728	0.1
1620.256	0.1
1624.78	0.1
1629.3	0.1
1633.816	-0.9
1638.327	-1.9
1642.834	-0.9
1647.336	3.1
1651.834	5.1
1656.328	0.1
1660.817	1.1
1665.302	0.1
1669.783	-0.9
1674.259	-0.9
1678.732	-4.9
1683.199	-1.9
1687.663	-5.9
1692.122	1.1
1696.577	-1.9
1701.028	0.1
1705.474	2.1
1709.917	1.1
1714.355	5.1
1718.788	0.1
1723.218	-4.9
1727.643	-0.9
1732.064	-1.9
1736.481	-2.9
1740.893	-0.9
1745.301	0.1
1749.705	-2.9
1754.105	-1.9
1758.501	-0.9
1762.893	-2.9
1767.28	0.1
1771.663	-3.9
1776.042	-3.9
1780.417	1.1
1784.787	-2.9
1789.154	2.1
1793.516	1.1
1797.874	-0.9
1802.228	-0.9
1806.578	-3.9
1810.924	0.1
1815.266	-1.9
1819.603	-2.9
1823.937	-2.9
1828.266	-3.9
1832.591	-2.9
1836.913	-0.9
1841.23	-0.9
1845.543	1.1
1849.852	-0.9
1854.156	-5.9
1858.457	-0.9
1862.754	-1.9
1867.047	-2.9
1871.335	1.1
1875.62	-2.9
1879.9	-2.9
1884.177	-1.9
1888.449	-2.9
1892.718	-1.9
1896.982	-2.9
1901.243	-2.9
1905.499	-1.9
1909.752	-0.9
1914	-1.9
1918.245	0.1
1922.485	3.1
1926.722	2.1
1930.954	-1.9
1935.183	-0.9
1939.408	-0.9
1943.628	-4.9
1947.845	1.1
1952.058	-3.9
1956.267	-1.9
1960.472	-0.9
1964.673	0.1
1968.87	-1.9
1973.063	3.1
1977.252	-0.9
1981.438	-4.9
1985.619	1.1
1989.797	1.1
1993.971	-2.9
1998.14	-0.9
2002.306	-3.9
2006.469	-0.9
2010.627	1.1
2014.781	3.1
2018.932	1.1
2023.078	-0.9
2027.221	-0.9
2031.36	-1.9
2035.495	-1.9
2039.627	-6.9
2043.754	-6.9
2047.878	-5.9
2051.998	-3.9
2056.114	-1.9
2060.226	-1.9
2064.334	3.1
2068.439	5.1
2072.54	3.1
2076.637	3.1
2080.73	-2.9
2084.82	1.1
2088.906	-1.9
2092.988	-4.9
2097.066	-1.9
2101.14	-2.9
2105.211	0.1
2109.278	-0.9
2113.342	-0.9
2117.401	-0.9
2121.457	-2.9
2125.509	-4.9
2129.558	-2.9
2133.602	-0.9
2137.643	-1.9
2141.681	1.1
2145.714	2.1
2149.744	2.1
2153.77	1.1
2157.793	-0.9
2161.812	-0.9
2165.827	-1.9
2169.838	2.1
2173.846	1.1
2177.851	0.1
2181.851	-1.9
2185.848	0.1
2189.841	-0.9
2193.831	2.1
2197.817	-1.9
2201.799	-1.9
2205.778	-3.9
2209.753	-5.9
2213.725	-1.9
2217.693	-1.9
2221.657	5.1
2225.618	1.1
2229.575	3.1
2233.529	2.1
2237.479	1.1
2241.425	1.1
2245.368	-0.9
2249.307	-0.9
2253.243	3.1
2257.175	-1.9
2261.104	3.1
2265.029	0.1
2268.95	-2.9
2272.868	-2.9
2276.783	-0.9
2280.694	-5.9
2284.601	-4.9
2288.505	-2.9
2292.405	-2.9
2296.302	-1.9
2300.195	0.1
2304.085	0.1
2307.971	2.1
2311.854	3.1
2315.734	0.1
2319.609	0.1
2323.482	-0.9
2327.351	-1.9
2331.216	-2.9
2335.078	-6.9
2338.937	-0.9
2342.792	-1.9
2346.643	-2.9
2350.492	1.1
2354.336	-1.9
2358.178	3.1
2362.015	3.1
2365.85	0.1
2369.681	3.1
2373.508	-1.9
2377.333	-2.9
2381.153	-0.9
2384.971	-0.9
2388.785	1.1
2392.595	-0.9
2396.402	1.1
2400.206	1.1
2404.007	-0.9
2407.804	-4.9
2411.597	-2.9
2415.388	-1.9
2419.174	-2.9
2422.958	-1.9
2426.738	-0.9
2430.515	3.1
2434.289	4.1
2438.059	3.1
2441.825	1.1
2445.589	2.1
2449.349	-0.9
2453.106	1.1
2456.859	-0.9
2460.61	2.1
2464.356	1.1
2468.1	2.1
2471.84	0.1
2475.577	0.1
2479.311	-0.9
2483.041	-2.9
2486.768	0.1
2490.492	-5.9
2494.213	-4.9
2497.93	-3.9
2501.644	-3.9
2505.355	1.1
2509.062	3.1
2512.766	-1.9
2516.467	3.1
2520.165	2.1
2523.859	-0.9
2527.551	-0.9
2531.239	0.1
2534.923	-3.9
2538.605	2.1
2542.283	-3.9
2545.958	-1.9
2549.63	1.1
2553.299	-2.9
2556.964	-2.9
2560.626	-3.9
2564.285	-0.9
2567.941	-0.9
2571.594	-2.9
2575.243	-3.9
2578.89	1.1
2582.533	1.1
2586.173	2.1
2589.809	0.1
2593.443	1.1
2597.073	1.1
2600.701	-2.9
2604.325	-1.9
2607.946	-1.9
2611.564	-4.9
2615.178	-0.9
2618.79	-4.9
2622.398	-1.9
2626.004	1.1
2629.606	1.1
2633.205	-1.9
2636.801	-2.9
2640.394	-1.9
2643.983	4.1
2647.57	0.1
2651.153	-0.9
2654.734	0.1
2658.311	2.1
2661.885	3.1
2665.456	1.1
2669.025	2.1
2672.589	3.1
2676.151	-0.9
2679.71	-3.9
2683.266	-6.9
2686.819	-1.9
2690.368	-5.9
2693.915	-2.9
2697.458	-1.9
2700.999	1.1
2704.536	-0.9
2708.071	-1.9
2711.602	-2.9
2715.13	-0.9
2718.656	-0.9
2722.178	2.1
2725.697	-2.9
2729.214	0.1
2732.727	1.1
2736.237	3.1
2739.744	0.1
2743.249	-4.9
2746.75	-2.9
2750.248	-6.9
2753.743	-3.9
2757.236	-4.9
2760.725	-3.9
2764.211	0.1
2767.695	1.1
2771.175	0.1
2774.652	1.1
2778.127	3.1
2781.598	0.1
2785.067	-0.9
2788.532	-1.9
2791.995	-1.9
2795.455	-0.9
2798.911	0.1
2802.365	2.1
2805.816	1.1
2809.264	0.1
2812.709	-3.9
2816.151	-3.9
2819.59	-1.9
2823.026	-4.9
2826.46	0.1
2829.89	1.1
2833.318	6.1
2836.742	5.1
2840.164	4.1
2843.583	3.1
2846.999	-1.9
2850.412	-2.9
2853.822	2.1
2857.229	-0.9
2860.634	-2.9
2864.035	-1.9
2867.434	-1.9
2870.83	-1.9
2874.223	-3.9
2877.613	-0.9
2881	0.1
2884.385	-1.9
2887.766	-1.9
2891.145	-5.9
2894.521	3.1
2897.894	0.1
2901.264	0.1
2904.631	-0.9
2907.996	1.1
2911.358	1.1
2914.717	-1.9
2918.073	-1.9
2921.426	-2.9
2924.777	-2.9
2928.124	-5.9
2931.469	-0.9
2934.811	-3.9
2938.15	-0.9
2941.487	5.1
2944.821	-1.9
2948.152	-0.9
2951.48	1.1
2954.805	-0.9
2958.128	1.1
2961.447	1.1
2964.765	-0.9
2968.079	4.1
2971.39	2.1
2974.699	0.1
2978.005	-2.9
2981.308	0.1
2984.609	-5.9
2987.907	-2.9
2991.202	-3.9
2994.494	-0.9
2997.784	-5.9
3001.07	-0.9
3004.355	0.1
3007.636	0.1
3010.915	0.1
3014.191	0.1
3017.464	1.1
3020.734	1.1
3024.002	-2.9
3027.267	0.1
3030.53	3.1
3033.789	-2.9
3037.046	2.1
3040.301	0.1
3043.552	-4.9
3046.801	-1.9
3050.048	-1.9
3053.291	-6.9
3056.532	0.1
3059.771	-1.9
3063.006	0.1
3066.239	1.1
3069.469	1.1
3072.697	2.1
3075.922	-3.9
3079.144	-4.9
3082.364	-0.9
3085.581	1.1
3088.795	-2.9
3092.007	-2.9
3095.216	1.1
3098.423	0.1
3101.627	-0.9
3104.828	-0.9
3108.026	-2.9
3111.222	-2.9
3114.416	0.1
3117.607	-0.9
3120.795	0.1
3123.98	0.1
3127.163	1.1
3130.344	1.1
3133.521	1.1
3136.696	-1.9
3139.869	-2.9
3143.039	-2.9
3146.206	-2.9
3149.371	-4.9
3152.533	-1.9
3155.693	-2.9
3158.85	-2.9
3162.005	0.1
3165.157	2.1
3168.306	2.1
3171.453	1.1
3174.597	-0.9
3177.739	0.1
3180.878	-2.9
3184.014	2.1
3187.149	1.1
3190.28	-0.9
3193.409	2.1
3196.536	-0.9
3199.659	-1.9
3202.781	-3.9
3205.9	-5.9
3209.016	-3.9
3212.13	0.1
3215.241	0.1
3218.35	1.1
3221.456	4.1
3224.56	1.1
3227.661	3.1
3230.76	3.1
3233.856	-1.9
3236.95	1.1
3240.041	-3.9
3243.13	1.1
3246.216	0.1
3249.3	-3.9
3252.382	-2.9
3255.46	0.1
3258.537	1.1
3261.611	-0.9
3264.682	-2.9
3267.751	-1.9
3270.818	-2.9
3273.882	1.1
3276.943	0.1
3280.002	0.1
3283.059	-0.9
3286.113	-0.9
3289.165	-0.9
3292.214	1.1
3295.261	-2.9
3298.306	2.1
3301.348	-2.9
3304.387	-2.9
3307.425	-1.9
3310.459	-1.9
3313.492	-0.9
3316.521	-0.9
3319.549	2.1
3322.574	1.1
3325.597	0.1
3328.617	-3.9
3331.635	0.1
3334.65	2.1
3337.663	-0.9
3340.674	-0.9
3343.682	-1.9
3346.688	1.1
3349.691	-2.9
3352.692	-4.9
3355.691	-1.9
3358.687	-3.9
3361.681	-1.9
3364.673	-5.9
3367.662	-1.9
3370.649	-0.9
3373.633	-1.9
3376.615	0.1
3379.595	2.1
3382.572	2.1
3385.547	4.1
3388.52	1.1
3391.49	2.1
3394.458	-1.9
3397.424	-3.9
3400.387	-1.9
3403.348	-1.9
3406.307	-5.9
3409.263	-4.9
3412.217	-3.9
3415.168	-2.9
3418.118	1.1
3421.065	1.1
3424.009	-2.9
3426.951	1.1
3429.891	0.1
3432.829	0.1
3435.764	3.1
3438.697	-2.9
3441.628	-2.9
3444.557	2.1
3447.483	1.1
3450.407	0.1
3453.328	-1.9
3456.247	0.1
3459.164	-4.9
3462.079	-1.9
3464.991	-1.9
3467.902	0.1
3470.809	0.1
3473.715	1.1
3476.618	1.1
3479.519	4.1
3482.418	2.1
3485.315	2.1
3488.209	-0.9
3491.101	-1.9
3493.99	-0.9
3496.878	0.1
3499.763	-0.9
3502.646	-1.9
3505.527	1.1
3508.405	-1.9
3511.281	-3.9
3514.155	-0.9
3517.027	-3.9
3519.897	-6.9
3522.764	-0.9
3525.629	-1.9
3528.492	-0.9
3531.352	-0.9
3534.211	1.1
3537.067	2.1
3539.921	-0.9
3542.773	0.1
3545.622	-2.9
3548.469	-3.9
3551.315	-0.9
3554.157	1.1
3556.998	1.1
3559.837	0.1
3562.673	-0.9
3565.507	1.1
3568.339	-0.9
3571.169	3.1
3573.996	2.1
3576.822	-0.9
3579.645	0.1
3582.466	-4.9
3585.285	-0.9
3588.101	-1.9
3590.916	-0.9
3593.728	3.1
3596.538	3.1
3599.346	3.1
3602.152	2.1
3604.956	3.1
3607.757	0.1
3610.556	-1.9
3613.354	-0.9
3616.149	-2.9
3618.942	-2.9
3621.732	-0.9
3624.521	1.1
3627.307	1.1
3630.092	1.1
3632.874	0.1
3635.654	0.1
3638.432	0.1
3641.208	-1.9
3643.982	1.1
3646.753	-1.9
3649.523	0.1
3652.29	-0.9
3655.055	2.1
3657.818	-0.9
3660.579	2.1
3663.338	-0.9
3666.095	0.1
3668.849	-1.9
3671.602	-2.9
3674.352	-0.9
3677.101	-1.9
3679.847	3.1
3682.591	2.1
3685.333	1.1
3688.073	2.1
3690.811	2.1
3693.547	-3.9
3696.281	-1.9
3699.013	2.1
3701.742	-2.9
3704.47	0.1
3707.195	0.1
3709.919	-0.9
3712.64	-2.9
3715.359	-1.9
3718.076	-0.9
3720.792	-3.9
3723.505	-1.9
3726.216	-0.9
3728.925	-3.9
3731.632	-2.9
3734.336	-0.9
3737.039	-1.9
3739.74	1.1
3742.439	4.1
3745.136	-0.9
3747.83	1.1
3750.523	-1.9
3753.213	-2.9
3755.902	-3.9
3758.589	-0.9
3761.273	-5.9
3763.956	-3.9
3766.636	-2.9
3769.315	-1.9
3771.991	-0.9
3774.665	-1.9
3777.338	-0.9
3780.008	-2.9
3782.677	-1.9
3785.343	-1.9
3788.007	-0.9
3790.67	-0.9
3793.33	2.1
3795.989	-0.9
3798.645	1.1
3801.299	2.1
3803.952	-0.9
3806.602	-0.9
3809.251	-0.9
3811.897	-2.9
3814.542	0.1
3817.184	-1.9
3819.825	-2.9
3822.463	1.1
3825.1	0.1
3827.735	-2.9
3830.367	-1.9
3832.998	-1.9
3835.627	-0.9
3838.253	-1.9
3840.878	-0.9
3843.501	3.1
3846.122	0.1
3848.741	3.1
3851.358	-1.9
3853.973	-1.9
3856.586	-0.9
3859.197	-0.9
3861.806	0.1
3864.414	-1.9
3867.019	-4.9
3869.622	-3.9
3872.224	-0.9
3874.823	-0.9
3877.421	-2.9
3880.016	-0.9
3882.61	-1.9
3885.202	-2.9
3887.792	-0.9
3890.38	-1.9
3892.966	-2.9
3895.55	-0.9
3898.132	0.1
3900.713	3.1
3903.291	0.1
3905.868	-0.9
3908.442	-3.9
3911.015	-2.9
3913.586	-3.9
3916.155	-6.9
3918.722	-2.9
3921.287	-5.9
3923.85	-0.9
3926.411	-2.9
3928.971	2.1
3931.528	3.1
3934.084	1.1
3936.638	0.1
3939.19	0.1
3941.74	-2.9
3944.288	2.1
3946.834	-0.9
3949.378	0.1
3951.921	1.1
3954.462	0.1
3957	0.1
3959.537	-3.9
3962.072	-2.9
3964.606	-0.9
3967.137	-2.9
3969.667	0.1
3972.194	-4.9
3974.72	3.1
3977.244	0.1
3979.766	3.1
3982.286	3.1
3984.805	-0.9
3987.321	-2.9
3989.836	-3.9
3992.349	-2.9
3994.86	-1.9
3997.369	-1.9
3999.877	-0.9
4002.382	3.1
4004.886	-3.9
4007.388	-1.9
4009.888	2.1
4012.386	-2.9
4014.883	-0.9
4017.377	-2.9
4019.87	-3.9
4022.361	1.1
4024.85	-0.9
4027.338	5.1
4029.823	2.1
4032.307	0.1
4034.789	0.1
4037.269	-0.9
4039.747	-0.9
4042.224	-2.9
4044.699	1.1
4047.172	-1.9
4049.643	-3.9
4052.112	-0.9
4054.58	-2.9
4057.046	-2.9
4059.51	1.1
4061.972	-4.9
4064.432	-1.9
4066.891	0.1
4069.348	-2.9
4071.803	1.1
4074.256	1.1
4076.708	0.1
4079.158	1.1
4081.606	0.1
4084.052	1.1
4086.497	-1.9
4088.939	0.1
4091.38	-3.9
4093.819	-1.9
4096.257	-5.9
4098.693	-6.9
4101.127	-2.9
4103.559	1.1
4105.989	2.1
4108.418	1.1
4110.845	3.1
4113.27	1.1
4115.694	-3.9
4118.115	-2.9
4120.535	-0.9
4122.954	0.1
4125.37	0.1
4127.785	-4.9
4130.198	-2.9
4132.609	-1.9
4135.019	-1.9
4137.427	-0.9
4139.833	1.1
4142.237	0.1
