Data from 10CFU1_A_RamanShift_1.txt Node
Date: Mon Jan 23 13:57:52 IST 2017
User: aro
Spectrometer: QEPB0276
Trigger mode: 0
Integration Time (sec): 5.000000E0
Scans to average: 1
Electric dark correction enabled: true
Nonlinearity correction enabled: false
Boxcar width: 0
XAxis mode: Raman Shifts
Number of Pixels in Spectrum: 1044
>>>>>Begin Spectral Data<<<<<
160.701	-26
166.742	3
172.777	86
178.805	365
184.826	1024
190.841	2101
196.849	3347
202.85	4176
208.845	4381
214.833	4238
220.815	4047
226.789	3936
232.758	3815
238.719	3709
244.674	3579
250.623	3427
256.565	3247
262.5	3111
268.429	2960
274.351	2857
280.267	2717
286.176	2631
292.079	2553
297.975	2448
303.865	2368
309.748	2321
315.625	2245
321.495	2211
327.359	2171
333.217	2140
339.068	2126
344.912	2113
350.751	2100
356.583	2113
362.408	2091
368.227	2096
374.04	2115
379.847	2113
385.647	2125
391.44	2122
397.228	2118
403.009	2173
408.784	2157
414.553	2160
420.315	2175
426.071	2170
431.821	2197
437.565	2183
443.302	2175
449.033	2171
454.758	2160
460.477	2172
466.189	2140
471.896	2133
477.596	2129
483.29	2112
488.978	2094
494.66	2089
500.335	2075
506.005	2042
511.668	1991
517.325	1966
522.977	1939
528.622	1951
534.261	1894
539.894	1877
545.521	1877
551.141	1860
556.756	1844
562.365	1823
567.968	1817
573.565	1790
579.155	1809
584.74	1786
590.319	1779
595.892	1776
601.459	1744
607.02	1732
612.575	1705
618.124	1721
623.667	1697
629.204	1690
634.735	1671
640.261	1642
645.781	1651
651.294	1630
656.802	1629
662.304	1625
667.8	1623
673.29	1626
678.775	1609
684.254	1610
689.726	1598
695.193	1591
700.655	1584
706.11	1562
711.56	1551
717.004	1548
722.442	1560
727.874	1531
733.301	1515
738.722	1508
744.137	1493
749.547	1502
754.951	1499
760.349	1504
765.741	1518
771.128	1491
776.509	1506
781.885	1499
787.254	1493
792.618	1482
797.977	1488
803.33	1469
808.677	1441
814.019	1436
819.355	1413
824.686	1416
830.011	1396
835.33	1380
840.644	1390
845.952	1376
851.255	1395
856.552	1367
861.844	1376
867.13	1364
872.41	1371
877.686	1346
882.955	1342
888.219	1309
893.478	1297
898.731	1274
903.979	1252
909.221	1227
914.458	1234
919.69	1231
924.916	1228
930.136	1241
935.351	1222
940.561	1211
945.766	1214
950.965	1202
956.158	1205
961.347	1181
966.529	1169
971.707	1146
976.879	1131
982.046	1123
987.208	1124
992.364	1115
997.515	1109
1002.66	1117
1007.801	1130
1012.936	1155
1018.066	1163
1023.19	1159
1028.309	1167
1033.423	1174
1038.532	1170
1043.636	1147
1048.734	1140
1053.827	1127
1058.915	1112
1063.998	1104
1069.075	1103
1074.147	1112
1079.214	1123
1084.276	1129
1089.333	1130
1094.385	1118
1099.431	1143
1104.472	1151
1109.509	1147
1114.54	1130
1119.565	1116
1124.586	1099
1129.602	1089
1134.613	1083
1139.618	1093
1144.619	1089
1149.614	1105
1154.604	1103
1159.589	1098
1164.57	1094
1169.545	1109
1174.515	1115
1179.48	1110
1184.44	1102
1189.395	1101
1194.345	1075
1199.29	1080
1204.23	1085
1209.165	1090
1214.095	1091
1219.021	1098
1223.941	1110
1228.856	1116
1233.766	1127
1238.672	1137
1243.572	1127
1248.467	1122
1253.358	1115
1258.244	1092
1263.124	1082
1268	1063
1272.871	1032
1277.737	1036
1282.599	1051
1287.455	1065
1292.306	1056
1297.153	1055
1301.995	1069
1306.832	1060
1311.664	1072
1316.491	1073
1321.314	1065
1326.132	1076
1330.945	1065
1335.753	1056
1340.556	1041
1345.354	1031
1350.148	1035
1354.937	1033
1359.722	1022
1364.501	1002
1369.276	971
1374.046	966
1378.811	953
1383.572	965
1388.327	952
1393.079	963
1397.825	941
1402.567	948
1407.304	937
1412.036	942
1416.764	944
1421.487	944
1426.205	942
1430.919	962
1435.628	969
1440.333	975
1445.032	973
1449.727	1002
1454.418	996
1459.104	994
1463.785	993
1468.462	989
1473.134	976
1477.802	974
1482.465	970
1487.123	963
1491.777	959
1496.426	969
1501.071	975
1505.711	980
1510.347	989
1514.978	998
1519.604	999
1524.226	1020
1528.844	999
1533.457	1005
1538.065	993
1542.669	1004
1547.269	986
1551.864	1004
1556.454	1019
1561.041	1020
1565.622	1023
1570.199	1036
1574.772	1059
1579.34	1088
1583.904	1094
1588.464	1112
1593.019	1117
1597.569	1143
1602.115	1148
1606.657	1151
1611.195	1174
1615.728	1182
1620.256	1199
1624.78	1213
1629.3	1241
1633.816	1246
1638.327	1266
1642.834	1293
1647.336	1312
1651.834	1310
1656.328	1317
1660.817	1289
1665.302	1269
1669.783	1256
1674.259	1234
1678.732	1197
1683.199	1153
1687.663	1140
1692.122	1099
1696.577	1060
1701.028	990
1705.474	945
1709.917	914
1714.355	892
1718.788	877
1723.218	867
1727.643	847
1732.064	815
1736.481	809
1740.893	795
1745.301	762
1749.705	750
1754.105	734
1758.501	726
1762.893	717
1767.28	692
1771.663	687
1776.042	681
1780.417	697
1784.787	698
1789.154	685
1793.516	700
1797.874	688
1802.228	682
1806.578	648
1810.924	644
1815.266	642
1819.603	614
1823.937	623
1828.266	630
1832.591	621
1836.913	615
1841.23	617
1845.543	606
1849.852	618
1854.156	613
1858.457	604
1862.754	623
1867.047	618
1871.335	637
1875.62	634
1879.9	634
1884.177	630
1888.449	629
1892.718	633
1896.982	629
1901.243	627
1905.499	624
1909.752	630
1914	632
1918.245	616
1922.485	621
1926.722	634
1930.954	625
1935.183	643
1939.408	633
1943.628	645
1947.845	633
1952.058	626
1956.267	624
1960.472	610
1964.673	605
1968.87	607
1973.063	598
1977.252	597
1981.438	594
1985.619	594
1989.797	576
1993.971	589
1998.14	582
2002.306	595
2006.469	598
2010.627	604
2014.781	600
2018.932	604
2023.078	598
2027.221	600
2031.36	593
2035.495	580
2039.627	582
2043.754	583
2047.878	587
2051.998	590
2056.114	584
2060.226	586
2064.334	592
2068.439	601
2072.54	601
2076.637	614
2080.73	603
2084.82	617
2088.906	612
2092.988	615
2097.066	602
2101.14	593
2105.211	595
2109.278	594
2113.342	590
2117.401	584
2121.457	580
2125.509	570
2129.558	573
2133.602	573
2137.643	570
2141.681	570
2145.714	569
2149.744	554
2153.77	553
2157.793	562
2161.812	552
2165.827	538
2169.838	537
2173.846	537
2177.851	516
2181.851	514
2185.848	507
2189.841	501
2193.831	502
2197.817	496
2201.799	490
2205.778	500
2209.753	488
2213.725	489
2217.693	482
2221.657	487
2225.618	490
2229.575	486
2233.529	475
2237.479	473
2241.425	475
2245.368	463
2249.307	465
2253.243	462
2257.175	445
2261.104	436
2265.029	430
2268.95	429
2272.868	425
2276.783	415
2280.694	415
2284.601	402
2288.505	408
2292.405	400
2296.302	396
2300.195	382
2304.085	375
2307.971	380
2311.854	367
2315.734	357
2319.609	344
2323.482	349
2327.351	343
2331.216	346
2335.078	333
2338.937	338
2342.792	338
2346.643	336
2350.492	333
2354.336	328
2358.178	335
2362.015	325
2365.85	332
2369.681	335
2373.508	346
2377.333	339
2381.153	328
2384.971	325
2388.785	326
2392.595	331
2396.402	331
2400.206	327
2404.007	324
2407.804	320
2411.597	327
2415.388	326
2419.174	321
2422.958	316
2426.738	323
2430.515	324
2434.289	319
2438.059	319
2441.825	309
2445.589	307
2449.349	313
2453.106	301
2456.859	302
2460.61	301
2464.356	294
2468.1	299
2471.84	298
2475.577	300
2479.311	298
2483.041	293
2486.768	297
2490.492	297
2494.213	289
2497.93	291
2501.644	290
2505.355	287
2509.062	286
2512.766	295
2516.467	288
2520.165	289
2523.859	287
2527.551	289
2531.239	280
2534.923	273
2538.605	275
2542.283	274
2545.958	271
2549.63	277
2553.299	277
2556.964	271
2560.626	264
2564.285	261
2567.941	269
2571.594	263
2575.243	262
2578.89	259
2582.533	256
2586.173	255
2589.809	245
2593.443	246
2597.073	243
2600.701	247
2604.325	246
2607.946	241
2611.564	242
2615.178	230
2618.79	239
2622.398	238
2626.004	227
2629.606	229
2633.205	238
2636.801	232
2640.394	220
2643.983	218
2647.57	228
2651.153	216
2654.734	221
2658.311	218
2661.885	217
2665.456	208
2669.025	210
2672.589	213
2676.151	211
2679.71	204
2683.266	198
2686.819	195
2690.368	201
2693.915	197
2697.458	195
2700.999	200
2704.536	193
2708.071	187
2711.602	185
2715.13	192
2718.656	186
2722.178	194
2725.697	197
2729.214	192
2732.727	193
2736.237	195
2739.744	190
2743.249	191
2746.75	192
2750.248	195
2753.743	190
2757.236	194
2760.725	180
2764.211	187
2767.695	181
2771.175	180
2774.652	177
2778.127	172
2781.598	175
2785.067	180
2788.532	174
2791.995	179
2795.455	174
2798.911	182
2802.365	187
2805.816	194
2809.264	191
2812.709	186
2816.151	190
2819.59	182
2823.026	182
2826.46	185
2829.89	195
2833.318	190
2836.742	194
2840.164	188
2843.583	200
2846.999	201
2850.412	194
2853.822	200
2857.229	196
2860.634	204
2864.035	210
2867.434	209
2870.83	212
2874.223	220
2877.613	215
2881	219
2884.385	222
2887.766	224
2891.145	224
2894.521	230
2897.894	213
2901.264	233
2904.631	228
2907.996	234
2911.358	221
2914.717	230
2918.073	232
2921.426	243
2924.777	249
2928.124	250
2931.469	255
2934.811	261
2938.15	266
2941.487	265
2944.821	272
2948.152	271
2951.48	284
2954.805	282
2958.128	296
2961.447	297
2964.765	304
2968.079	306
2971.39	309
2974.699	318
2978.005	323
2981.308	339
2984.609	343
2987.907	352
2991.202	364
2994.494	375
2997.784	386
3001.07	384
3004.355	404
3007.636	406
3010.915	414
3014.191	430
3017.464	428
3020.734	436
3024.002	448
3027.267	455
3030.53	462
3033.789	467
3037.046	489
3040.301	489
3043.552	506
3046.801	523
3050.048	527
3053.291	536
3056.532	556
3059.771	580
3063.006	594
3066.239	620
3069.469	631
3072.697	652
3075.922	667
3079.144	685
3082.364	698
3085.581	728
3088.795	740
3092.007	753
3095.216	778
3098.423	799
3101.627	807
3104.828	822
3108.026	831
3111.222	853
3114.416	880
3117.607	903
3120.795	919
3123.98	936
3127.163	966
3130.344	986
3133.521	1015
3136.696	1034
3139.869	1041
3143.039	1066
3146.206	1082
3149.371	1102
3152.533	1105
3155.693	1105
3158.85	1126
3162.005	1135
3165.157	1143
3168.306	1150
3171.453	1143
3174.597	1149
3177.739	1148
3180.878	1149
3184.014	1156
3187.149	1160
3190.28	1162
3193.409	1161
3196.536	1152
3199.659	1167
3202.781	1173
3205.9	1168
3209.016	1176
3212.13	1166
3215.241	1165
3218.35	1154
3221.456	1155
3224.56	1134
3227.661	1133
3230.76	1122
3233.856	1112
3236.95	1096
3240.041	1099
3243.13	1079
3246.216	1080
3249.3	1064
3252.382	1066
3255.46	1068
3258.537	1069
3261.611	1053
3264.682	1050
3267.751	1046
3270.818	1040
3273.882	1020
3276.943	1016
3280.002	1017
3283.059	1006
3286.113	995
3289.165	980
3292.214	958
3295.261	953
3298.306	928
3301.348	938
3304.387	902
3307.425	901
3310.459	891
3313.492	853
3316.521	863
3319.549	853
3322.574	849
3325.597	840
3328.617	822
3331.635	827
3334.65	819
3337.663	807
3340.674	817
3343.682	812
3346.688	810
3349.691	801
3352.692	801
3355.691	805
3358.687	789
3361.681	781
3364.673	772
3367.662	765
3370.649	742
3373.633	744
3376.615	723
3379.595	725
3382.572	709
3385.547	704
3388.52	703
3391.49	685
3394.458	672
3397.424	662
3400.387	653
3403.348	651
3406.307	634
3409.263	646
3412.217	632
3415.168	623
3418.118	611
3421.065	617
3424.009	604
3426.951	599
3429.891	583
3432.829	579
3435.764	570
3438.697	544
3441.628	533
3444.557	524
3447.483	503
3450.407	497
3453.328	482
3456.247	464
3459.164	448
3462.079	445
3464.991	424
3467.902	418
3470.809	400
3473.715	395
3476.618	373
3479.519	371
3482.418	359
3485.315	349
3488.209	337
3491.101	328
3493.99	314
3496.878	302
3499.763	302
3502.646	295
3505.527	289
3508.405	276
3511.281	261
3514.155	248
3517.027	241
3519.897	226
3522.764	215
3525.629	206
3528.492	195
3531.352	180
3534.211	169
3537.067	162
3539.921	145
3542.773	144
3545.622	137
3548.469	131
3551.315	114
3554.157	116
3556.998	109
3559.837	103
3562.673	94
3565.507	85
3568.339	81
3571.169	74
3573.996	70
3576.822	58
3579.645	60
3582.466	50
3585.285	44
3588.101	40
3590.916	40
3593.728	38
3596.538	34
3599.346	29
3602.152	23
3604.956	19
3607.757	3
3610.556	3
3613.354	-1
3616.149	-2
3618.942	-10
3621.732	-9
3624.521	-9
3627.307	-13
3630.092	-18
3632.874	-21
3635.654	-23
3638.432	-20
3641.208	-25
3643.982	-27
3646.753	-33
3649.523	-37
3652.29	-37
3655.055	-42
3657.818	-48
3660.579	-50
3663.338	-50
3666.095	-51
3668.849	-51
3671.602	-54
3674.352	-54
3677.101	-60
3679.847	-60
3682.591	-63
3685.333	-61
3688.073	-67
3690.811	-69
3693.547	-68
3696.281	-73
3699.013	-76
3701.742	-74
3704.47	-76
3707.195	-78
3709.919	-78
3712.64	-72
3715.359	-79
3718.076	-82
3720.792	-84
3723.505	-84
3726.216	-79
3728.925	-81
3731.632	-82
3734.336	-83
3737.039	-85
3739.74	-87
3742.439	-88
3745.136	-92
3747.83	-90
3750.523	-86
3753.213	-87
3755.902	-85
3758.589	-89
3761.273	-89
3763.956	-87
3766.636	-90
3769.315	-91
3771.991	-89
3774.665	-91
3777.338	-91
3780.008	-95
3782.677	-95
3785.343	-96
3788.007	-95
3790.67	-94
3793.33	-97
3795.989	-93
3798.645	-90
3801.299	-92
3803.952	-96
3806.602	-99
3809.251	-96
3811.897	-94
3814.542	-93
3817.184	-92
3819.825	-97
3822.463	-93
3825.1	-102
3827.735	-101
3830.367	-96
3832.998	-105
3835.627	-98
3838.253	-96
3840.878	-101
3843.501	-96
3846.122	-100
3848.741	-103
3851.358	-99
3853.973	-99
3856.586	-98
3859.197	-99
3861.806	-102
3864.414	-100
3867.019	-103
3869.622	-103
3872.224	-100
3874.823	-99
3877.421	-97
3880.016	-92
3882.61	-91
3885.202	-93
3887.792	-95
3890.38	-97
3892.966	-99
3895.55	-102
3898.132	-100
3900.713	-102
3903.291	-103
3905.868	-100
3908.442	-103
3911.015	-104
3913.586	-105
3916.155	-103
3918.722	-103
3921.287	-102
3923.85	-102
3926.411	-100
3928.971	-103
3931.528	-107
3934.084	-105
3936.638	-107
3939.19	-108
3941.74	-101
3944.288	-106
3946.834	-104
3949.378	-105
3951.921	-103
3954.462	-108
3957	-105
3959.537	-106
3962.072	-105
3964.606	-105
3967.137	-100
3969.667	-98
3972.194	-104
3974.72	-105
3977.244	-105
3979.766	-103
3982.286	-99
3984.805	-104
3987.321	-104
3989.836	-103
3992.349	-105
3994.86	-105
3997.369	-101
3999.877	-105
4002.382	-100
4004.886	-98
4007.388	-98
4009.888	-100
4012.386	-100
4014.883	-101
4017.377	-106
4019.87	-100
4022.361	-104
4024.85	-105
4027.338	-104
4029.823	-101
4032.307	-104
4034.789	-104
4037.269	-103
4039.747	-103
4042.224	-106
4044.699	-105
4047.172	-100
4049.643	-101
4052.112	-105
4054.58	-103
4057.046	-99
4059.51	-106
4061.972	-109
4064.432	-107
4066.891	-106
4069.348	-103
4071.803	-105
4074.256	-101
4076.708	-99
4079.158	-103
4081.606	-104
4084.052	-107
4086.497	-103
4088.939	-102
4091.38	-103
4093.819	-105
4096.257	-106
4098.693	-107
4101.127	-107
4103.559	-108
4105.989	-71
4108.418	-69
4110.845	-66
4113.27	-67
4115.694	-57
4118.115	-49
4120.535	-101
4122.954	-102
4125.37	-105
4127.785	-106
4130.198	-105
4132.609	-104
4135.019	-108
4137.427	-107
4139.833	-109
4142.237	-104
