Data from 1000CFU2_A_ramanshift_RamanShift_14-12-10-495.txt Node
Date: Sun Dec 25 14:12:10 IST 2016
User: aro
Spectrometer: QEPB0276
Trigger mode: 0
Integration Time (sec): 5.000000E0
Scans to average: 1
Electric dark correction enabled: true
Nonlinearity correction enabled: false
Boxcar width: 0
XAxis mode: Raman Shifts
Number of Pixels in Spectrum: 1044
>>>>>Begin Spectral Data<<<<<
160.701	5
166.742	21
172.777	68
178.805	209
184.826	613
190.841	1473
196.849	2716
202.85	3907
208.845	4514
214.833	4502
220.815	4336
226.789	4179
232.758	4091
238.719	3972
244.674	3840
250.623	3713
256.565	3552
262.5	3407
268.429	3251
274.351	3113
280.267	3021
286.176	2891
292.079	2809
297.975	2697
303.865	2617
309.748	2552
315.625	2489
321.495	2418
327.359	2385
333.217	2340
339.068	2315
344.912	2292
350.751	2286
356.583	2272
362.408	2275
368.227	2269
374.04	2285
379.847	2289
385.647	2277
391.44	2314
397.228	2301
403.009	2344
408.784	2329
414.553	2342
420.315	2350
426.071	2370
431.821	2369
437.565	2349
443.302	2379
449.033	2376
454.758	2363
460.477	2357
466.189	2331
471.896	2321
477.596	2320
483.29	2314
488.978	2307
494.66	2290
500.335	2299
506.005	2246
511.668	2225
517.325	2184
522.977	2161
528.622	2143
534.261	2115
539.894	2100
545.521	2072
551.141	2062
556.756	2033
562.365	2027
567.968	2036
573.565	2014
579.155	2006
584.74	1999
590.319	1980
595.892	1983
601.459	1962
607.02	1963
612.575	1944
618.124	1922
623.667	1901
629.204	1912
634.735	1872
640.261	1879
645.781	1867
651.294	1854
656.802	1848
662.304	1847
667.8	1826
673.29	1830
678.775	1828
684.254	1802
689.726	1787
695.193	1811
700.655	1805
706.11	1778
711.56	1765
717.004	1751
722.442	1749
727.874	1762
733.301	1741
738.722	1737
744.137	1724
749.547	1711
754.951	1728
760.349	1701
765.741	1702
771.128	1713
776.509	1703
781.885	1706
787.254	1703
792.618	1713
797.977	1713
803.33	1674
808.677	1680
814.019	1658
819.355	1636
824.686	1631
830.011	1622
835.33	1613
840.644	1610
845.952	1628
851.255	1601
856.552	1610
861.844	1597
867.13	1583
872.41	1585
877.686	1582
882.955	1585
888.219	1551
893.478	1532
898.731	1494
903.979	1485
909.221	1441
914.458	1443
919.69	1440
924.916	1436
930.136	1442
935.351	1440
940.561	1429
945.766	1435
950.965	1437
956.158	1417
961.347	1422
966.529	1399
971.707	1374
976.879	1369
982.046	1341
987.208	1340
992.364	1328
997.515	1331
1002.66	1332
1007.801	1332
1012.936	1361
1018.066	1362
1023.19	1388
1028.309	1383
1033.423	1375
1038.532	1383
1043.636	1373
1048.734	1363
1053.827	1346
1058.915	1335
1063.998	1327
1069.075	1329
1074.147	1306
1079.214	1328
1084.276	1330
1089.333	1335
1094.385	1368
1099.431	1369
1104.472	1371
1109.509	1360
1114.54	1356
1119.565	1344
1124.586	1331
1129.602	1328
1134.613	1302
1139.618	1294
1144.619	1299
1149.614	1304
1154.604	1305
1159.589	1297
1164.57	1301
1169.545	1314
1174.515	1318
1179.48	1328
1184.44	1306
1189.395	1297
1194.345	1295
1199.29	1289
1204.23	1300
1209.165	1293
1214.095	1311
1219.021	1303
1223.941	1314
1228.856	1332
1233.766	1328
1238.672	1337
1243.572	1330
1248.467	1333
1253.358	1336
1258.244	1315
1263.124	1300
1268	1277
1272.871	1258
1277.737	1254
1282.599	1245
1287.455	1245
1292.306	1241
1297.153	1250
1301.995	1273
1306.832	1266
1311.664	1264
1316.491	1268
1321.314	1275
1326.132	1275
1330.945	1263
1335.753	1242
1340.556	1234
1345.354	1207
1350.148	1208
1354.937	1191
1359.722	1185
1364.501	1180
1369.276	1182
1374.046	1179
1378.811	1183
1383.572	1173
1388.327	1160
1393.079	1160
1397.825	1162
1402.567	1155
1407.304	1136
1412.036	1140
1416.764	1132
1421.487	1127
1426.205	1126
1430.919	1137
1435.628	1151
1440.333	1157
1445.032	1166
1449.727	1190
1454.418	1188
1459.104	1193
1463.785	1181
1468.462	1180
1473.134	1153
1477.802	1152
1482.465	1128
1487.123	1131
1491.777	1137
1496.426	1136
1501.071	1130
1505.711	1152
1510.347	1160
1514.978	1175
1519.604	1172
1524.226	1187
1528.844	1182
1533.457	1193
1538.065	1197
1542.669	1197
1547.269	1171
1551.864	1178
1556.454	1181
1561.041	1209
1565.622	1187
1570.199	1195
1574.772	1222
1579.34	1251
1583.904	1261
1588.464	1278
1593.019	1287
1597.569	1306
1602.115	1308
1606.657	1301
1611.195	1334
1615.728	1321
1620.256	1344
1624.78	1358
1629.3	1370
1633.816	1392
1638.327	1412
1642.834	1417
1647.336	1439
1651.834	1475
1656.328	1471
1660.817	1455
1665.302	1428
1669.783	1422
1674.259	1393
1678.732	1350
1683.199	1317
1687.663	1268
1692.122	1241
1696.577	1204
1701.028	1154
1705.474	1112
1709.917	1086
1714.355	1052
1718.788	1039
1723.218	1032
1727.643	1027
1732.064	1004
1736.481	986
1740.893	946
1745.301	922
1749.705	901
1754.105	896
1758.501	868
1762.893	856
1767.28	842
1771.663	839
1776.042	841
1780.417	816
1784.787	824
1789.154	827
1793.516	831
1797.874	825
1802.228	844
1806.578	823
1810.924	811
1815.266	806
1819.603	794
1823.937	780
1828.266	779
1832.591	764
1836.913	767
1841.23	753
1845.543	753
1849.852	753
1854.156	764
1858.457	751
1862.754	760
1867.047	758
1871.335	769
1875.62	765
1879.9	766
1884.177	770
1888.449	770
1892.718	768
1896.982	754
1901.243	760
1905.499	754
1909.752	745
1914	748
1918.245	742
1922.485	755
1926.722	744
1930.954	747
1935.183	745
1939.408	756
1943.628	770
1947.845	760
1952.058	759
1956.267	760
1960.472	760
1964.673	748
1968.87	744
1973.063	745
1977.252	721
1981.438	722
1985.619	723
1989.797	713
1993.971	716
1998.14	719
2002.306	719
2006.469	716
2010.627	731
2014.781	725
2018.932	734
2023.078	725
2027.221	722
2031.36	721
2035.495	720
2039.627	699
2043.754	714
2047.878	717
2051.998	697
2056.114	694
2060.226	704
2064.334	710
2068.439	712
2072.54	714
2076.637	711
2080.73	715
2084.82	715
2088.906	723
2092.988	717
2097.066	722
2101.14	726
2105.211	700
2109.278	707
2113.342	708
2117.401	702
2121.457	703
2125.509	707
2129.558	698
2133.602	688
2137.643	682
2141.681	680
2145.714	692
2149.744	678
2153.77	677
2157.793	680
2161.812	663
2165.827	661
2169.838	658
2173.846	647
2177.851	638
2181.851	640
2185.848	623
2189.841	621
2193.831	615
2197.817	608
2201.799	608
2205.778	598
2209.753	594
2213.725	607
2217.693	601
2221.657	599
2225.618	592
2229.575	588
2233.529	591
2237.479	589
2241.425	579
2245.368	573
2249.307	566
2253.243	561
2257.175	562
2261.104	550
2265.029	542
2268.95	532
2272.868	537
2276.783	526
2280.694	516
2284.601	514
2288.505	518
2292.405	505
2296.302	512
2300.195	491
2304.085	495
2307.971	478
2311.854	481
2315.734	467
2319.609	467
2323.482	453
2327.351	452
2331.216	446
2335.078	453
2338.937	443
2342.792	432
2346.643	438
2350.492	431
2354.336	431
2358.178	437
2362.015	435
2365.85	432
2369.681	428
2373.508	448
2377.333	431
2381.153	437
2384.971	436
2388.785	436
2392.595	432
2396.402	423
2400.206	420
2404.007	423
2407.804	416
2411.597	430
2415.388	420
2419.174	418
2422.958	419
2426.738	416
2430.515	416
2434.289	407
2438.059	416
2441.825	408
2445.589	404
2449.349	403
2453.106	404
2456.859	408
2460.61	392
2464.356	385
2468.1	389
2471.84	391
2475.577	381
2479.311	387
2483.041	384
2486.768	387
2490.492	379
2494.213	380
2497.93	380
2501.644	382
2505.355	386
2509.062	382
2512.766	378
2516.467	377
2520.165	371
2523.859	369
2527.551	363
2531.239	364
2534.923	359
2538.605	356
2542.283	368
2545.958	357
2549.63	352
2553.299	353
2556.964	352
2560.626	348
2564.285	344
2567.941	345
2571.594	344
2575.243	343
2578.89	344
2582.533	336
2586.173	338
2589.809	331
2593.443	330
2597.073	320
2600.701	319
2604.325	318
2607.946	319
2611.564	320
2615.178	312
2618.79	316
2622.398	310
2626.004	314
2629.606	311
2633.205	309
2636.801	312
2640.394	306
2643.983	312
2647.57	307
2651.153	300
2654.734	295
2658.311	291
2661.885	288
2665.456	288
2669.025	289
2672.589	285
2676.151	288
2679.71	283
2683.266	282
2686.819	277
2690.368	277
2693.915	272
2697.458	274
2700.999	269
2704.536	266
2708.071	253
2711.602	260
2715.13	257
2718.656	251
2722.178	258
2725.697	255
2729.214	256
2732.727	255
2736.237	259
2739.744	268
2743.249	259
2746.75	258
2750.248	260
2753.743	256
2757.236	254
2760.725	260
2764.211	259
2767.695	250
2771.175	251
2774.652	248
2778.127	244
2781.598	249
2785.067	243
2788.532	249
2791.995	253
2795.455	240
2798.911	250
2802.365	250
2805.816	254
2809.264	243
2812.709	252
2816.151	249
2819.59	244
2823.026	250
2826.46	249
2829.89	246
2833.318	246
2836.742	260
2840.164	252
2843.583	258
2846.999	252
2850.412	255
2853.822	266
2857.229	269
2860.634	265
2864.035	264
2867.434	284
2870.83	273
2874.223	274
2877.613	282
2881	279
2884.385	290
2887.766	277
2891.145	283
2894.521	276
2897.894	286
2901.264	282
2904.631	279
2907.996	291
2911.358	290
2914.717	293
2918.073	302
2921.426	305
2924.777	303
2928.124	312
2931.469	312
2934.811	306
2938.15	321
2941.487	328
2944.821	336
2948.152	330
2951.48	337
2954.805	336
2958.128	348
2961.447	343
2964.765	339
2968.079	356
2971.39	363
2974.699	360
2978.005	378
2981.308	371
2984.609	384
2987.907	404
2991.202	399
2994.494	416
2997.784	430
3001.07	435
3004.355	450
3007.636	465
3010.915	462
3014.191	484
3017.464	476
3020.734	484
3024.002	499
3027.267	503
3030.53	513
3033.789	512
3037.046	519
3040.301	539
3043.552	549
3046.801	557
3050.048	565
3053.291	586
3056.532	602
3059.771	619
3063.006	632
3066.239	652
3069.469	679
3072.697	678
3075.922	699
3079.144	717
3082.364	743
3085.581	756
3088.795	766
3092.007	790
3095.216	800
3098.423	815
3101.627	846
3104.828	861
3108.026	880
3111.222	895
3114.416	913
3117.607	921
3120.795	941
3123.98	973
3127.163	998
3130.344	1000
3133.521	1038
3136.696	1053
3139.869	1085
3143.039	1100
3146.206	1120
3149.371	1149
3152.533	1147
3155.693	1152
3158.85	1158
3162.005	1167
3165.157	1167
3168.306	1179
3171.453	1176
3174.597	1187
3177.739	1185
3180.878	1195
3184.014	1191
3187.149	1195
3190.28	1188
3193.409	1198
3196.536	1193
3199.659	1203
3202.781	1203
3205.9	1218
3209.016	1207
3212.13	1214
3215.241	1191
3218.35	1195
3221.456	1181
3224.56	1166
3227.661	1159
3230.76	1170
3233.856	1140
3236.95	1129
3240.041	1124
3243.13	1100
3246.216	1092
3249.3	1095
3252.382	1089
3255.46	1095
3258.537	1067
3261.611	1058
3264.682	1062
3267.751	1063
3270.818	1065
3273.882	1049
3276.943	1048
3280.002	1038
3283.059	1025
3286.113	1026
3289.165	994
3292.214	989
3295.261	978
3298.306	957
3301.348	956
3304.387	929
3307.425	919
3310.459	912
3313.492	912
3316.521	888
3319.549	884
3322.574	876
3325.597	859
3328.617	844
3331.635	841
3334.65	838
3337.663	840
3340.674	840
3343.682	822
3346.688	813
3349.691	820
3352.692	818
3355.691	826
3358.687	800
3361.681	801
3364.673	795
3367.662	786
3370.649	774
3373.633	769
3376.615	748
3379.595	740
3382.572	734
3385.547	730
3388.52	711
3391.49	710
3394.458	705
3397.424	681
3400.387	680
3403.348	660
3406.307	659
3409.263	659
3412.217	644
3415.168	648
3418.118	638
3421.065	628
3424.009	625
3426.951	609
3429.891	609
3432.829	591
3435.764	586
3438.697	572
3441.628	570
3444.557	539
3447.483	536
3450.407	523
3453.328	511
3456.247	494
3459.164	485
3462.079	461
3464.991	454
3467.902	442
3470.809	420
3473.715	411
3476.618	405
3479.519	385
3482.418	372
3485.315	377
3488.209	359
3491.101	351
3493.99	344
3496.878	338
3499.763	327
3502.646	319
3505.527	309
3508.405	290
3511.281	279
3514.155	274
3517.027	260
3519.897	243
3522.764	238
3525.629	228
3528.492	216
3531.352	208
3534.211	196
3537.067	184
3539.921	180
3542.773	175
3545.622	162
3548.469	154
3551.315	144
3554.157	135
3556.998	130
3559.837	124
3562.673	120
3565.507	114
3568.339	107
3571.169	100
3573.996	92
3576.822	89
3579.645	83
3582.466	77
3585.285	76
3588.101	65
3590.916	56
3593.728	60
3596.538	55
3599.346	51
3602.152	47
3604.956	40
3607.757	43
3610.556	34
3613.354	30
3616.149	21
3618.942	24
3621.732	19
3624.521	17
3627.307	15
3630.092	10
3632.874	12
3635.654	1
3638.432	7
3641.208	4
3643.982	2
3646.753	-4
3649.523	-1
3652.29	-8
3655.055	-13
3657.818	-15
3660.579	-11
3663.338	-17
3666.095	-15
3668.849	-21
3671.602	-22
3674.352	-30
3677.101	-29
3679.847	-30
3682.591	-33
3685.333	-30
3688.073	-32
3690.811	-34
3693.547	-34
3696.281	-41
3699.013	-42
3701.742	-39
3704.47	-38
3707.195	-46
3709.919	-43
3712.64	-48
3715.359	-43
3718.076	-43
3720.792	-51
3723.505	-48
3726.216	-53
3728.925	-54
3731.632	-56
3734.336	-52
3737.039	-53
3739.74	-52
3742.439	-46
3745.136	-56
3747.83	-51
3750.523	-61
3753.213	-59
3755.902	-57
3758.589	-56
3761.273	-54
3763.956	-51
3766.636	-51
3769.315	-57
3771.991	-59
3774.665	-61
3777.338	-60
3780.008	-62
3782.677	-58
3785.343	-58
3788.007	-59
3790.67	-59
3793.33	-61
3795.989	-62
3798.645	-64
3801.299	-61
3803.952	-60
3806.602	-64
3809.251	-60
3811.897	-64
3814.542	-66
3817.184	-60
3819.825	-63
3822.463	-65
3825.1	-69
3827.735	-63
3830.367	-65
3832.998	-63
3835.627	-64
3838.253	-64
3840.878	-66
3843.501	-66
3846.122	-67
3848.741	-72
3851.358	-71
3853.973	-65
3856.586	-64
3859.197	-67
3861.806	-65
3864.414	-70
3867.019	-67
3869.622	-67
3872.224	-67
3874.823	-70
3877.421	-66
3880.016	-65
3882.61	-65
3885.202	-62
3887.792	-62
3890.38	-63
3892.966	-65
3895.55	-66
3898.132	-70
3900.713	-70
3903.291	-69
3905.868	-68
3908.442	-68
3911.015	-75
3913.586	-73
3916.155	-69
3918.722	-74
3921.287	-68
3923.85	-73
3926.411	-68
3928.971	-70
3931.528	-70
3934.084	-71
3936.638	-75
3939.19	-75
3941.74	-73
3944.288	-73
3946.834	-68
3949.378	-70
3951.921	-70
3954.462	-72
3957	-71
3959.537	-72
3962.072	-72
3964.606	-73
3967.137	-72
3969.667	-72
3972.194	-71
3974.72	-73
3977.244	-66
3979.766	-72
3982.286	-67
3984.805	-71
3987.321	-72
3989.836	-71
3992.349	-67
3994.86	-66
3997.369	-66
3999.877	-70
4002.382	-69
4004.886	-73
4007.388	-71
4009.888	-70
4012.386	-70
4014.883	-70
4017.377	-72
4019.87	-71
4022.361	-69
4024.85	-71
4027.338	-70
4029.823	-67
4032.307	-69
4034.789	-68
4037.269	-72
4039.747	-70
4042.224	-71
4044.699	-71
4047.172	-71
4049.643	-70
4052.112	-72
4054.58	-72
4057.046	-71
4059.51	-74
4061.972	-67
4064.432	-66
4066.891	-71
4069.348	-73
4071.803	-74
4074.256	-75
4076.708	-74
4079.158	-69
4081.606	-69
4084.052	-70
4086.497	-71
4088.939	-71
4091.38	-72
4093.819	-72
4096.257	-74
4098.693	-78
4101.127	-75
4103.559	-74
4105.989	-24
4108.418	-19
4110.845	-15
4113.27	-19
4115.694	-10
4118.115	-12
4120.535	-75
4122.954	-70
4125.37	-69
4127.785	-71
4130.198	-73
4132.609	-74
4135.019	-78
4137.427	-76
4139.833	-75
4142.237	-74
