Data from 100000CFU3_A_ramanshift_RamanShift_14-21-25-451.txt Node
Date: Sun Dec 25 14:21:25 IST 2016
User: aro
Spectrometer: QEPB0276
Trigger mode: 0
Integration Time (sec): 5.000000E0
Scans to average: 1
Electric dark correction enabled: true
Nonlinearity correction enabled: false
Boxcar width: 0
XAxis mode: Raman Shifts
Number of Pixels in Spectrum: 1044
>>>>>Begin Spectral Data<<<<<
160.701	2
166.742	22
172.777	67
178.805	220
184.826	654
190.841	1560
196.849	2897
202.85	4132
208.845	4773
214.833	4803
220.815	4621
226.789	4468
232.758	4382
238.719	4234
244.674	4127
250.623	3985
256.565	3783
262.5	3639
268.429	3481
274.351	3333
280.267	3205
286.176	3103
292.079	2990
297.975	2905
303.865	2831
309.748	2709
315.625	2661
321.495	2602
327.359	2544
333.217	2527
339.068	2490
344.912	2472
350.751	2457
356.583	2446
362.408	2448
368.227	2454
374.04	2437
379.847	2443
385.647	2464
391.44	2471
397.228	2483
403.009	2506
408.784	2514
414.553	2545
420.315	2554
426.071	2543
431.821	2549
437.565	2528
443.302	2538
449.033	2557
454.758	2521
460.477	2525
466.189	2500
471.896	2495
477.596	2488
483.29	2497
488.978	2481
494.66	2480
500.335	2462
506.005	2418
511.668	2381
517.325	2375
522.977	2332
528.622	2295
534.261	2298
539.894	2279
545.521	2262
551.141	2239
556.756	2210
562.365	2198
567.968	2203
573.565	2197
579.155	2147
584.74	2166
590.319	2155
595.892	2144
601.459	2134
607.02	2121
612.575	2101
618.124	2103
623.667	2080
629.204	2060
634.735	2042
640.261	2022
645.781	2014
651.294	1999
656.802	1989
662.304	2001
667.8	1989
673.29	1969
678.775	1978
684.254	1978
689.726	1971
695.193	1967
700.655	1980
706.11	1952
711.56	1929
717.004	1920
722.442	1895
727.874	1906
733.301	1900
738.722	1863
744.137	1877
749.547	1880
754.951	1850
760.349	1872
765.741	1868
771.128	1868
776.509	1872
781.885	1860
787.254	1867
792.618	1839
797.977	1848
803.33	1835
808.677	1831
814.019	1808
819.355	1808
824.686	1776
830.011	1766
835.33	1781
840.644	1752
845.952	1762
851.255	1740
856.552	1748
861.844	1752
867.13	1739
872.41	1746
877.686	1722
882.955	1707
888.219	1700
893.478	1690
898.731	1662
903.979	1640
909.221	1611
914.458	1611
919.69	1582
924.916	1577
930.136	1584
935.351	1597
940.561	1586
945.766	1589
950.965	1573
956.158	1580
961.347	1572
966.529	1529
971.707	1525
976.879	1502
982.046	1483
987.208	1495
992.364	1477
997.515	1484
1002.66	1494
1007.801	1509
1012.936	1500
1018.066	1527
1023.19	1531
1028.309	1533
1033.423	1537
1038.532	1534
1043.636	1532
1048.734	1523
1053.827	1514
1058.915	1485
1063.998	1487
1069.075	1469
1074.147	1462
1079.214	1472
1084.276	1477
1089.333	1486
1094.385	1508
1099.431	1515
1104.472	1524
1109.509	1511
1114.54	1499
1119.565	1492
1124.586	1476
1129.602	1452
1134.613	1460
1139.618	1438
1144.619	1439
1149.614	1447
1154.604	1467
1159.589	1447
1164.57	1466
1169.545	1478
1174.515	1489
1179.48	1491
1184.44	1455
1189.395	1452
1194.345	1457
1199.29	1454
1204.23	1450
1209.165	1457
1214.095	1462
1219.021	1463
1223.941	1481
1228.856	1482
1233.766	1516
1238.672	1503
1243.572	1503
1248.467	1505
1253.358	1474
1258.244	1463
1263.124	1443
1268	1432
1272.871	1424
1277.737	1405
1282.599	1396
1287.455	1386
1292.306	1418
1297.153	1405
1301.995	1421
1306.832	1448
1311.664	1418
1316.491	1445
1321.314	1429
1326.132	1437
1330.945	1434
1335.753	1382
1340.556	1387
1345.354	1362
1350.148	1369
1354.937	1357
1359.722	1350
1364.501	1307
1369.276	1315
1374.046	1305
1378.811	1301
1383.572	1286
1388.327	1285
1393.079	1291
1397.825	1283
1402.567	1274
1407.304	1263
1412.036	1260
1416.764	1250
1421.487	1252
1426.205	1262
1430.919	1277
1435.628	1285
1440.333	1289
1445.032	1306
1449.727	1329
1454.418	1331
1459.104	1327
1463.785	1331
1468.462	1312
1473.134	1291
1477.802	1288
1482.465	1285
1487.123	1276
1491.777	1285
1496.426	1268
1501.071	1288
1505.711	1294
1510.347	1291
1514.978	1285
1519.604	1317
1524.226	1324
1528.844	1337
1533.457	1329
1538.065	1332
1542.669	1314
1547.269	1307
1551.864	1311
1556.454	1323
1561.041	1326
1565.622	1333
1570.199	1341
1574.772	1365
1579.34	1384
1583.904	1403
1588.464	1411
1593.019	1430
1597.569	1465
1602.115	1454
1606.657	1473
1611.195	1472
1615.728	1501
1620.256	1483
1624.78	1502
1629.3	1523
1633.816	1544
1638.327	1540
1642.834	1571
1647.336	1600
1651.834	1588
1656.328	1595
1660.817	1599
1665.302	1578
1669.783	1566
1674.259	1539
1678.732	1510
1683.199	1466
1687.663	1419
1692.122	1379
1696.577	1339
1701.028	1292
1705.474	1232
1709.917	1189
1714.355	1169
1718.788	1161
1723.218	1168
1727.643	1128
1732.064	1128
1736.481	1100
1740.893	1074
1745.301	1055
1749.705	1021
1754.105	1013
1758.501	984
1762.893	970
1767.28	947
1771.663	944
1776.042	940
1780.417	940
1784.787	940
1789.154	944
1793.516	942
1797.874	940
1802.228	936
1806.578	927
1810.924	922
1815.266	912
1819.603	881
1823.937	877
1828.266	878
1832.591	877
1836.913	872
1841.23	864
1845.543	859
1849.852	863
1854.156	865
1858.457	878
1862.754	875
1867.047	867
1871.335	876
1875.62	867
1879.9	881
1884.177	882
1888.449	869
1892.718	886
1896.982	872
1901.243	862
1905.499	855
1909.752	856
1914	861
1918.245	855
1922.485	860
1926.722	861
1930.954	850
1935.183	856
1939.408	868
1943.628	860
1947.845	863
1952.058	870
1956.267	857
1960.472	858
1964.673	852
1968.87	846
1973.063	830
1977.252	820
1981.438	815
1985.619	814
1989.797	813
1993.971	804
1998.14	818
2002.306	825
2006.469	829
2010.627	821
2014.781	820
2018.932	825
2023.078	826
2027.221	824
2031.36	818
2035.495	814
2039.627	802
2043.754	806
2047.878	801
2051.998	785
2056.114	800
2060.226	802
2064.334	807
2068.439	799
2072.54	808
2076.637	816
2080.73	824
2084.82	819
2088.906	813
2092.988	815
2097.066	811
2101.14	804
2105.211	803
2109.278	811
2113.342	783
2117.401	783
2121.457	784
2125.509	787
2129.558	784
2133.602	790
2137.643	787
2141.681	779
2145.714	766
2149.744	775
2153.77	772
2157.793	766
2161.812	762
2165.827	757
2169.838	735
2173.846	731
2177.851	723
2181.851	717
2185.848	705
2189.841	706
2193.831	693
2197.817	702
2201.799	685
2205.778	681
2209.753	675
2213.725	689
2217.693	687
2221.657	678
2225.618	679
2229.575	670
2233.529	677
2237.479	683
2241.425	680
2245.368	660
2249.307	655
2253.243	647
2257.175	640
2261.104	633
2265.029	616
2268.95	608
2272.868	619
2276.783	599
2280.694	609
2284.601	585
2288.505	576
2292.405	583
2296.302	576
2300.195	564
2304.085	569
2307.971	555
2311.854	550
2315.734	530
2319.609	539
2323.482	535
2327.351	519
2331.216	516
2335.078	506
2338.937	506
2342.792	504
2346.643	500
2350.492	503
2354.336	500
2358.178	500
2362.015	501
2365.85	511
2369.681	512
2373.508	513
2377.333	505
2381.153	503
2384.971	505
2388.785	507
2392.595	504
2396.402	495
2400.206	498
2404.007	503
2407.804	492
2411.597	489
2415.388	489
2419.174	495
2422.958	483
2426.738	482
2430.515	485
2434.289	483
2438.059	484
2441.825	478
2445.589	474
2449.349	456
2453.106	466
2456.859	469
2460.61	464
2464.356	457
2468.1	450
2471.84	454
2475.577	446
2479.311	443
2483.041	451
2486.768	436
2490.492	450
2494.213	446
2497.93	448
2501.644	447
2505.355	447
2509.062	455
2512.766	441
2516.467	437
2520.165	435
2523.859	435
2527.551	423
2531.239	426
2534.923	432
2538.605	420
2542.283	426
2545.958	407
2549.63	408
2553.299	413
2556.964	415
2560.626	415
2564.285	415
2567.941	407
2571.594	402
2575.243	407
2578.89	400
2582.533	389
2586.173	387
2589.809	394
2593.443	386
2597.073	390
2600.701	371
2604.325	386
2607.946	381
2611.564	382
2615.178	382
2618.79	384
2622.398	378
2626.004	366
2629.606	365
2633.205	365
2636.801	366
2640.394	367
2643.983	364
2647.57	360
2651.153	349
2654.734	354
2658.311	344
2661.885	340
2665.456	346
2669.025	339
2672.589	338
2676.151	337
2679.71	333
2683.266	332
2686.819	323
2690.368	330
2693.915	326
2697.458	322
2700.999	324
2704.536	309
2708.071	311
2711.602	307
2715.13	309
2718.656	305
2722.178	295
2725.697	304
2729.214	298
2732.727	303
2736.237	304
2739.744	306
2743.249	303
2746.75	307
2750.248	299
2753.743	297
2757.236	299
2760.725	306
2764.211	301
2767.695	302
2771.175	302
2774.652	292
2778.127	276
2781.598	290
2785.067	286
2788.532	285
2791.995	291
2795.455	291
2798.911	294
2802.365	289
2805.816	293
2809.264	296
2812.709	290
2816.151	293
2819.59	289
2823.026	289
2826.46	296
2829.89	290
2833.318	286
2836.742	297
2840.164	288
2843.583	291
2846.999	294
2850.412	295
2853.822	301
2857.229	302
2860.634	308
2864.035	303
2867.434	309
2870.83	320
2874.223	314
2877.613	299
2881	318
2884.385	326
2887.766	316
2891.145	324
2894.521	318
2897.894	314
2901.264	321
2904.631	318
2907.996	313
2911.358	316
2914.717	321
2918.073	332
2921.426	338
2924.777	331
2928.124	339
2931.469	341
2934.811	342
2938.15	343
2941.487	349
2944.821	358
2948.152	365
2951.48	364
2954.805	372
2958.128	364
2961.447	366
2964.765	382
2968.079	380
2971.39	395
2974.699	391
2978.005	403
2981.308	402
2984.609	416
2987.907	421
2991.202	442
2994.494	445
2997.784	461
3001.07	467
3004.355	471
3007.636	502
3010.915	504
3014.191	508
3017.464	518
3020.734	516
3024.002	521
3027.267	545
3030.53	535
3033.789	554
3037.046	554
3040.301	571
3043.552	581
3046.801	593
3050.048	611
3053.291	630
3056.532	635
3059.771	655
3063.006	666
3066.239	689
3069.469	716
3072.697	729
3075.922	750
3079.144	746
3082.364	781
3085.581	790
3088.795	815
3092.007	833
3095.216	858
3098.423	859
3101.627	875
3104.828	898
3108.026	921
3111.222	931
3114.416	959
3117.607	972
3120.795	997
3123.98	1007
3127.163	1052
3130.344	1064
3133.521	1077
3136.696	1108
3139.869	1129
3143.039	1153
3146.206	1164
3149.371	1179
3152.533	1186
3155.693	1208
3158.85	1200
3162.005	1198
3165.157	1218
3168.306	1228
3171.453	1216
3174.597	1223
3177.739	1241
3180.878	1238
3184.014	1235
3187.149	1239
3190.28	1246
3193.409	1248
3196.536	1232
3199.659	1250
3202.781	1253
3205.9	1268
3209.016	1252
3212.13	1252
3215.241	1248
3218.35	1239
3221.456	1229
3224.56	1218
3227.661	1216
3230.76	1193
3233.856	1167
3236.95	1152
3240.041	1157
3243.13	1145
3246.216	1142
3249.3	1120
3252.382	1126
3255.46	1115
3258.537	1120
3261.611	1096
3264.682	1098
3267.751	1089
3270.818	1100
3273.882	1086
3276.943	1079
3280.002	1076
3283.059	1069
3286.113	1059
3289.165	1034
3292.214	1016
3295.261	1004
3298.306	1003
3301.348	977
3304.387	966
3307.425	952
3310.459	939
3313.492	931
3316.521	907
3319.549	914
3322.574	892
3325.597	890
3328.617	887
3331.635	870
3334.65	878
3337.663	875
3340.674	871
3343.682	868
3346.688	853
3349.691	854
3352.692	858
3355.691	849
3358.687	826
3361.681	821
3364.673	822
3367.662	806
3370.649	805
3373.633	792
3376.615	776
3379.595	774
3382.572	759
3385.547	745
3388.52	742
3391.49	733
3394.458	723
3397.424	715
3400.387	708
3403.348	694
3406.307	679
3409.263	677
3412.217	673
3415.168	662
3418.118	666
3421.065	646
3424.009	649
3426.951	633
3429.891	627
3432.829	618
3435.764	603
3438.697	588
3441.628	577
3444.557	568
3447.483	549
3450.407	541
3453.328	526
3456.247	509
3459.164	494
3462.079	476
3464.991	470
3467.902	450
3470.809	441
3473.715	434
3476.618	417
3479.519	403
3482.418	400
3485.315	385
3488.209	375
3491.101	368
3493.99	345
3496.878	348
3499.763	336
3502.646	331
3505.527	316
3508.405	305
3511.281	283
3514.155	272
3517.027	265
3519.897	249
3522.764	245
3525.629	241
3528.492	232
3531.352	215
3534.211	204
3537.067	191
3539.921	179
3542.773	174
3545.622	166
3548.469	161
3551.315	153
3554.157	141
3556.998	131
3559.837	121
3562.673	125
3565.507	120
3568.339	114
3571.169	104
3573.996	101
3576.822	95
3579.645	91
3582.466	84
3585.285	81
3588.101	71
3590.916	64
3593.728	54
3596.538	57
3599.346	55
3602.152	52
3604.956	45
3607.757	42
3610.556	39
3613.354	29
3616.149	25
3618.942	22
3621.732	22
3624.521	18
3627.307	15
3630.092	12
3632.874	15
3635.654	7
3638.432	4
3641.208	5
3643.982	1
3646.753	1
3649.523	-3
3652.29	-3
3655.055	-5
3657.818	-9
3660.579	-15
3663.338	-17
3666.095	-19
3668.849	-20
3671.602	-20
3674.352	-28
3677.101	-29
3679.847	-30
3682.591	-33
3685.333	-36
3688.073	-35
3690.811	-35
3693.547	-37
3696.281	-39
3699.013	-40
3701.742	-35
3704.47	-40
3707.195	-42
3709.919	-43
3712.64	-52
3715.359	-47
3718.076	-50
3720.792	-51
3723.505	-49
3726.216	-50
3728.925	-53
3731.632	-57
3734.336	-51
3737.039	-58
3739.74	-55
3742.439	-52
3745.136	-56
3747.83	-56
3750.523	-58
3753.213	-58
3755.902	-59
3758.589	-57
3761.273	-61
3763.956	-59
3766.636	-56
3769.315	-55
3771.991	-62
3774.665	-64
3777.338	-64
3780.008	-63
3782.677	-63
3785.343	-59
3788.007	-66
3790.67	-62
3793.33	-67
3795.989	-64
3798.645	-64
3801.299	-65
3803.952	-65
3806.602	-64
3809.251	-62
3811.897	-66
3814.542	-66
3817.184	-64
3819.825	-65
3822.463	-68
3825.1	-70
3827.735	-68
3830.367	-70
3832.998	-65
3835.627	-67
3838.253	-70
3840.878	-72
3843.501	-65
3846.122	-67
3848.741	-75
3851.358	-72
3853.973	-69
3856.586	-65
3859.197	-69
3861.806	-65
3864.414	-71
3867.019	-69
3869.622	-69
3872.224	-70
3874.823	-75
3877.421	-72
3880.016	-71
3882.61	-67
3885.202	-62
3887.792	-63
3890.38	-68
3892.966	-69
3895.55	-71
3898.132	-75
3900.713	-76
3903.291	-78
3905.868	-70
3908.442	-71
3911.015	-73
3913.586	-71
3916.155	-70
3918.722	-75
3921.287	-74
3923.85	-78
3926.411	-70
3928.971	-75
3931.528	-73
3934.084	-75
3936.638	-74
3939.19	-75
3941.74	-76
3944.288	-78
3946.834	-76
3949.378	-74
3951.921	-74
3954.462	-72
3957	-71
3959.537	-73
3962.072	-75
3964.606	-76
3967.137	-76
3969.667	-76
3972.194	-78
3974.72	-74
3977.244	-74
3979.766	-72
3982.286	-71
3984.805	-76
3987.321	-75
3989.836	-77
3992.349	-76
3994.86	-71
3997.369	-67
3999.877	-71
4002.382	-71
4004.886	-75
4007.388	-73
4009.888	-73
4012.386	-71
4014.883	-72
4017.377	-75
4019.87	-72
4022.361	-73
4024.85	-72
4027.338	-76
4029.823	-73
4032.307	-71
4034.789	-75
4037.269	-78
4039.747	-75
4042.224	-76
4044.699	-71
4047.172	-72
4049.643	-72
4052.112	-73
4054.58	-75
4057.046	-76
4059.51	-76
4061.972	-71
4064.432	-70
4066.891	-72
4069.348	-74
4071.803	-74
4074.256	-77
4076.708	-78
4079.158	-75
4081.606	-71
4084.052	-74
4086.497	-71
4088.939	-73
4091.38	-74
4093.819	-76
4096.257	-75
4098.693	-78
4101.127	-80
4103.559	-77
4105.989	-27
4108.418	-19
4110.845	-15
4113.27	-14
4115.694	-16
4118.115	-7
4120.535	-77
4122.954	-74
4125.37	-74
4127.785	-74
4130.198	-70
4132.609	-73
4135.019	-77
4137.427	-77
4139.833	-79
4142.237	-78
