Data from 100CFU2_A_ramanshift_RamanShift_14-08-45-522.txt Node
Date: Sun Dec 25 14:08:45 IST 2016
User: aro
Spectrometer: QEPB0276
Trigger mode: 0
Integration Time (sec): 5.000000E0
Scans to average: 1
Electric dark correction enabled: true
Nonlinearity correction enabled: false
Boxcar width: 0
XAxis mode: Raman Shifts
Number of Pixels in Spectrum: 1044
>>>>>Begin Spectral Data<<<<<
160.701	0
166.742	23
172.777	70
178.805	216
184.826	644
190.841	1498
196.849	2768
202.85	3938
208.845	4576
214.833	4580
220.815	4376
226.789	4227
232.758	4107
238.719	4024
244.674	3860
250.623	3686
256.565	3555
262.5	3388
268.429	3233
274.351	3099
280.267	2988
286.176	2884
292.079	2766
297.975	2667
303.865	2580
309.748	2503
315.625	2436
321.495	2359
327.359	2355
333.217	2302
339.068	2284
344.912	2273
350.751	2238
356.583	2228
362.408	2232
368.227	2249
374.04	2249
379.847	2228
385.647	2258
391.44	2264
397.228	2266
403.009	2289
408.784	2296
414.553	2296
420.315	2318
426.071	2316
431.821	2321
437.565	2320
443.302	2332
449.033	2311
454.758	2308
460.477	2307
466.189	2304
471.896	2291
477.596	2288
483.29	2255
488.978	2243
494.66	2264
500.335	2233
506.005	2202
511.668	2171
517.325	2133
522.977	2095
528.622	2078
534.261	2057
539.894	2039
545.521	2024
551.141	2015
556.756	2001
562.365	1974
567.968	1970
573.565	1963
579.155	1944
584.74	1940
590.319	1919
595.892	1934
601.459	1931
607.02	1888
612.575	1876
618.124	1861
623.667	1857
629.204	1834
634.735	1827
640.261	1807
645.781	1779
651.294	1787
656.802	1786
662.304	1765
667.8	1758
673.29	1762
678.775	1742
684.254	1754
689.726	1736
695.193	1737
700.655	1725
706.11	1718
711.56	1705
717.004	1692
722.442	1699
727.874	1690
733.301	1667
738.722	1649
744.137	1651
749.547	1639
754.951	1628
760.349	1643
765.741	1630
771.128	1632
776.509	1631
781.885	1645
787.254	1639
792.618	1640
797.977	1617
803.33	1617
808.677	1619
814.019	1598
819.355	1580
824.686	1562
830.011	1549
835.33	1542
840.644	1535
845.952	1548
851.255	1523
856.552	1519
861.844	1511
867.13	1517
872.41	1493
877.686	1498
882.955	1485
888.219	1474
893.478	1444
898.731	1418
903.979	1409
909.221	1392
914.458	1366
919.69	1363
924.916	1346
930.136	1349
935.351	1335
940.561	1358
945.766	1349
950.965	1332
956.158	1336
961.347	1310
966.529	1308
971.707	1284
976.879	1271
982.046	1242
987.208	1259
992.364	1235
997.515	1258
1002.66	1252
1007.801	1247
1012.936	1268
1018.066	1257
1023.19	1281
1028.309	1296
1033.423	1294
1038.532	1289
1043.636	1291
1048.734	1267
1053.827	1258
1058.915	1263
1063.998	1243
1069.075	1223
1074.147	1235
1079.214	1230
1084.276	1243
1089.333	1258
1094.385	1264
1099.431	1280
1104.472	1271
1109.509	1269
1114.54	1253
1119.565	1239
1124.586	1220
1129.602	1220
1134.613	1206
1139.618	1204
1144.619	1205
1149.614	1191
1154.604	1196
1159.589	1204
1164.57	1213
1169.545	1225
1174.515	1228
1179.48	1223
1184.44	1227
1189.395	1218
1194.345	1198
1199.29	1203
1204.23	1193
1209.165	1196
1214.095	1202
1219.021	1228
1223.941	1236
1228.856	1239
1233.766	1233
1238.672	1230
1243.572	1242
1248.467	1228
1253.358	1224
1258.244	1208
1263.124	1181
1268	1181
1272.871	1160
1277.737	1149
1282.599	1143
1287.455	1149
1292.306	1149
1297.153	1168
1301.995	1162
1306.832	1169
1311.664	1180
1316.491	1187
1321.314	1187
1326.132	1156
1330.945	1168
1335.753	1158
1340.556	1125
1345.354	1105
1350.148	1108
1354.937	1104
1359.722	1097
1364.501	1103
1369.276	1100
1374.046	1083
1378.811	1099
1383.572	1089
1388.327	1076
1393.079	1083
1397.825	1070
1402.567	1066
1407.304	1050
1412.036	1027
1416.764	1055
1421.487	1037
1426.205	1035
1430.919	1038
1435.628	1046
1440.333	1075
1445.032	1079
1449.727	1082
1454.418	1078
1459.104	1087
1463.785	1090
1468.462	1074
1473.134	1065
1477.802	1055
1482.465	1051
1487.123	1045
1491.777	1048
1496.426	1042
1501.071	1061
1505.711	1054
1510.347	1071
1514.978	1080
1519.604	1093
1524.226	1113
1528.844	1113
1533.457	1116
1538.065	1106
1542.669	1113
1547.269	1093
1551.864	1098
1556.454	1114
1561.041	1114
1565.622	1114
1570.199	1131
1574.772	1133
1579.34	1163
1583.904	1167
1588.464	1198
1593.019	1219
1597.569	1230
1602.115	1232
1606.657	1259
1611.195	1256
1615.728	1254
1620.256	1268
1624.78	1283
1629.3	1297
1633.816	1322
1638.327	1346
1642.834	1365
1647.336	1379
1651.834	1390
1656.328	1379
1660.817	1376
1665.302	1361
1669.783	1343
1674.259	1316
1678.732	1269
1683.199	1243
1687.663	1205
1692.122	1176
1696.577	1131
1701.028	1079
1705.474	1048
1709.917	1017
1714.355	1003
1718.788	974
1723.218	951
1727.643	945
1732.064	923
1736.481	907
1740.893	885
1745.301	864
1749.705	846
1754.105	820
1758.501	795
1762.893	787
1767.28	778
1771.663	764
1776.042	762
1780.417	756
1784.787	749
1789.154	750
1793.516	753
1797.874	750
1802.228	760
1806.578	752
1810.924	742
1815.266	734
1819.603	726
1823.937	720
1828.266	733
1832.591	685
1836.913	689
1841.23	692
1845.543	688
1849.852	678
1854.156	698
1858.457	683
1862.754	695
1867.047	678
1871.335	689
1875.62	687
1879.9	707
1884.177	690
1888.449	700
1892.718	690
1896.982	688
1901.243	687
1905.499	690
1909.752	688
1914	683
1918.245	671
1922.485	677
1926.722	672
1930.954	678
1935.183	685
1939.408	699
1943.628	698
1947.845	703
1952.058	694
1956.267	701
1960.472	689
1964.673	677
1968.87	685
1973.063	664
1977.252	671
1981.438	664
1985.619	651
1989.797	655
1993.971	651
1998.14	655
2002.306	657
2006.469	659
2010.627	664
2014.781	670
2018.932	667
2023.078	666
2027.221	662
2031.36	652
2035.495	668
2039.627	656
2043.754	656
2047.878	646
2051.998	639
2056.114	648
2060.226	651
2064.334	642
2068.439	651
2072.54	660
2076.637	656
2080.73	665
2084.82	672
2088.906	661
2092.988	671
2097.066	666
2101.14	661
2105.211	665
2109.278	669
2113.342	653
2117.401	640
2121.457	645
2125.509	660
2129.558	647
2133.602	646
2137.643	628
2141.681	641
2145.714	633
2149.744	625
2153.77	637
2157.793	627
2161.812	625
2165.827	618
2169.838	604
2173.846	583
2177.851	587
2181.851	588
2185.848	577
2189.841	569
2193.831	572
2197.817	558
2201.799	561
2205.778	547
2209.753	554
2213.725	556
2217.693	563
2221.657	553
2225.618	545
2229.575	544
2233.529	556
2237.479	531
2241.425	529
2245.368	535
2249.307	526
2253.243	523
2257.175	506
2261.104	508
2265.029	496
2268.95	494
2272.868	491
2276.783	477
2280.694	476
2284.601	473
2288.505	465
2292.405	460
2296.302	459
2300.195	452
2304.085	452
2307.971	444
2311.854	424
2315.734	425
2319.609	429
2323.482	415
2327.351	417
2331.216	411
2335.078	409
2338.937	398
2342.792	396
2346.643	400
2350.492	387
2354.336	394
2358.178	401
2362.015	393
2365.85	391
2369.681	392
2373.508	395
2377.333	391
2381.153	400
2384.971	393
2388.785	389
2392.595	389
2396.402	386
2400.206	383
2404.007	381
2407.804	381
2411.597	381
2415.388	375
2419.174	376
2422.958	368
2426.738	367
2430.515	378
2434.289	373
2438.059	364
2441.825	365
2445.589	363
2449.349	366
2453.106	359
2456.859	357
2460.61	357
2464.356	352
2468.1	344
2471.84	349
2475.577	339
2479.311	350
2483.041	339
2486.768	345
2490.492	339
2494.213	348
2497.93	338
2501.644	347
2505.355	338
2509.062	339
2512.766	333
2516.467	344
2520.165	342
2523.859	336
2527.551	324
2531.239	332
2534.923	325
2538.605	315
2542.283	318
2545.958	315
2549.63	316
2553.299	312
2556.964	315
2560.626	320
2564.285	311
2567.941	308
2571.594	307
2575.243	303
2578.89	300
2582.533	299
2586.173	298
2589.809	300
2593.443	303
2597.073	291
2600.701	290
2604.325	290
2607.946	294
2611.564	291
2615.178	287
2618.79	293
2622.398	287
2626.004	274
2629.606	282
2633.205	278
2636.801	274
2640.394	271
2643.983	272
2647.57	276
2651.153	270
2654.734	264
2658.311	265
2661.885	260
2665.456	261
2669.025	254
2672.589	251
2676.151	255
2679.71	252
2683.266	251
2686.819	257
2690.368	251
2693.915	245
2697.458	241
2700.999	233
2704.536	230
2708.071	232
2711.602	236
2715.13	240
2718.656	235
2722.178	231
2725.697	224
2729.214	224
2732.727	228
2736.237	235
2739.744	228
2743.249	233
2746.75	232
2750.248	231
2753.743	234
2757.236	234
2760.725	225
2764.211	231
2767.695	222
2771.175	219
2774.652	226
2778.127	228
2781.598	222
2785.067	226
2788.532	215
2791.995	220
2795.455	224
2798.911	216
2802.365	231
2805.816	225
2809.264	231
2812.709	230
2816.151	233
2819.59	227
2823.026	225
2826.46	222
2829.89	236
2833.318	242
2836.742	236
2840.164	240
2843.583	235
2846.999	235
2850.412	235
2853.822	239
2857.229	244
2860.634	243
2864.035	245
2867.434	251
2870.83	246
2874.223	257
2877.613	262
2881	262
2884.385	263
2887.766	266
2891.145	274
2894.521	266
2897.894	268
2901.264	279
2904.631	275
2907.996	276
2911.358	279
2914.717	277
2918.073	279
2921.426	281
2924.777	292
2928.124	297
2931.469	299
2934.811	306
2938.15	311
2941.487	317
2944.821	318
2948.152	317
2951.48	323
2954.805	335
2958.128	331
2961.447	334
2964.765	339
2968.079	347
2971.39	350
2974.699	364
2978.005	365
2981.308	375
2984.609	381
2987.907	394
2991.202	401
2994.494	414
2997.784	431
3001.07	441
3004.355	434
3007.636	457
3010.915	463
3014.191	474
3017.464	478
3020.734	493
3024.002	498
3027.267	495
3030.53	520
3033.789	523
3037.046	535
3040.301	542
3043.552	558
3046.801	567
3050.048	595
3053.291	601
3056.532	599
3059.771	624
3063.006	644
3066.239	657
3069.469	685
3072.697	695
3075.922	725
3079.144	735
3082.364	771
3085.581	776
3088.795	787
3092.007	811
3095.216	824
3098.423	840
3101.627	867
3104.828	892
3108.026	901
3111.222	930
3114.416	934
3117.607	941
3120.795	981
3123.98	997
3127.163	1038
3130.344	1057
3133.521	1071
3136.696	1103
3139.869	1100
3143.039	1129
3146.206	1147
3149.371	1177
3152.533	1185
3155.693	1199
3158.85	1194
3162.005	1204
3165.157	1217
3168.306	1215
3171.453	1221
3174.597	1224
3177.739	1223
3180.878	1228
3184.014	1234
3187.149	1230
3190.28	1254
3193.409	1234
3196.536	1245
3199.659	1250
3202.781	1263
3205.9	1258
3209.016	1258
3212.13	1248
3215.241	1261
3218.35	1234
3221.456	1243
3224.56	1221
3227.661	1211
3230.76	1218
3233.856	1193
3236.95	1173
3240.041	1162
3243.13	1138
3246.216	1153
3249.3	1143
3252.382	1141
3255.46	1116
3258.537	1119
3261.611	1113
3264.682	1116
3267.751	1116
3270.818	1103
3273.882	1103
3276.943	1102
3280.002	1082
3283.059	1060
3286.113	1071
3289.165	1052
3292.214	1038
3295.261	1022
3298.306	1012
3301.348	992
3304.387	978
3307.425	960
3310.459	963
3313.492	932
3316.521	931
3319.549	907
3322.574	897
3325.597	884
3328.617	889
3331.635	880
3334.65	874
3337.663	871
3340.674	879
3343.682	860
3346.688	859
3349.691	871
3352.692	855
3355.691	855
3358.687	838
3361.681	831
3364.673	833
3367.662	808
3370.649	800
3373.633	797
3376.615	792
3379.595	773
3382.572	750
3385.547	744
3388.52	737
3391.49	734
3394.458	709
3397.424	719
3400.387	704
3403.348	698
3406.307	686
3409.263	670
3412.217	677
3415.168	666
3418.118	657
3421.065	663
3424.009	648
3426.951	643
3429.891	630
3432.829	618
3435.764	609
3438.697	595
3441.628	587
3444.557	581
3447.483	559
3450.407	541
3453.328	527
3456.247	513
3459.164	491
3462.079	483
3464.991	476
3467.902	461
3470.809	448
3473.715	431
3476.618	426
3479.519	403
3482.418	395
3485.315	390
3488.209	381
3491.101	376
3493.99	353
3496.878	352
3499.763	347
3502.646	330
3505.527	328
3508.405	302
3511.281	291
3514.155	290
3517.027	270
3519.897	261
3522.764	264
3525.629	243
3528.492	228
3531.352	216
3534.211	211
3537.067	196
3539.921	190
3542.773	180
3545.622	173
3548.469	158
3551.315	160
3554.157	139
3556.998	144
3559.837	125
3562.673	127
3565.507	120
3568.339	118
3571.169	108
3573.996	99
3576.822	91
3579.645	87
3582.466	87
3585.285	74
3588.101	69
3590.916	62
3593.728	65
3596.538	58
3599.346	55
3602.152	50
3604.956	46
3607.757	42
3610.556	41
3613.354	30
3616.149	22
3618.942	23
3621.732	26
3624.521	20
3627.307	15
3630.092	16
3632.874	14
3635.654	9
3638.432	9
3641.208	4
3643.982	7
3646.753	-1
3649.523	-2
3652.29	-4
3655.055	-8
3657.818	-12
3660.579	-18
3663.338	-15
3666.095	-11
3668.849	-22
3671.602	-21
3674.352	-33
3677.101	-29
3679.847	-29
3682.591	-31
3685.333	-32
3688.073	-32
3690.811	-35
3693.547	-36
3696.281	-38
3699.013	-42
3701.742	-37
3704.47	-42
3707.195	-43
3709.919	-47
3712.64	-47
3715.359	-41
3718.076	-47
3720.792	-53
3723.505	-49
3726.216	-55
3728.925	-54
3731.632	-57
3734.336	-51
3737.039	-53
3739.74	-54
3742.439	-49
3745.136	-54
3747.83	-55
3750.523	-59
3753.213	-59
3755.902	-58
3758.589	-57
3761.273	-56
3763.956	-55
3766.636	-55
3769.315	-59
3771.991	-62
3774.665	-61
3777.338	-61
3780.008	-60
3782.677	-57
3785.343	-58
3788.007	-60
3790.67	-60
3793.33	-64
3795.989	-65
3798.645	-66
3801.299	-64
3803.952	-64
3806.602	-63
3809.251	-61
3811.897	-65
3814.542	-65
3817.184	-64
3819.825	-64
3822.463	-68
3825.1	-69
3827.735	-62
3830.367	-69
3832.998	-61
3835.627	-66
3838.253	-66
3840.878	-70
3843.501	-68
3846.122	-67
3848.741	-73
3851.358	-70
3853.973	-67
3856.586	-62
3859.197	-68
3861.806	-67
3864.414	-71
3867.019	-70
3869.622	-70
3872.224	-69
3874.823	-66
3877.421	-67
3880.016	-67
3882.61	-63
3885.202	-62
3887.792	-65
3890.38	-65
3892.966	-69
3895.55	-70
3898.132	-69
3900.713	-70
3903.291	-73
3905.868	-70
3908.442	-70
3911.015	-75
3913.586	-72
3916.155	-73
3918.722	-72
3921.287	-71
3923.85	-75
3926.411	-68
3928.971	-71
3931.528	-73
3934.084	-75
3936.638	-76
3939.19	-71
3941.74	-73
3944.288	-71
3946.834	-70
3949.378	-71
3951.921	-71
3954.462	-71
3957	-71
3959.537	-73
3962.072	-72
3964.606	-72
3967.137	-73
3969.667	-69
3972.194	-72
3974.72	-73
3977.244	-72
3979.766	-73
3982.286	-67
3984.805	-72
3987.321	-75
3989.836	-72
3992.349	-70
3994.86	-68
3997.369	-69
3999.877	-71
4002.382	-70
4004.886	-72
4007.388	-73
4009.888	-71
4012.386	-67
4014.883	-69
4017.377	-73
4019.87	-72
4022.361	-72
4024.85	-72
4027.338	-71
4029.823	-68
4032.307	-67
4034.789	-67
4037.269	-71
4039.747	-73
4042.224	-75
4044.699	-73
4047.172	-74
4049.643	-70
4052.112	-71
4054.58	-71
4057.046	-68
4059.51	-70
4061.972	-69
4064.432	-68
4066.891	-74
4069.348	-71
4071.803	-73
4074.256	-75
4076.708	-75
4079.158	-70
4081.606	-68
4084.052	-74
4086.497	-73
4088.939	-74
4091.38	-74
4093.819	-74
4096.257	-75
4098.693	-77
4101.127	-79
4103.559	-75
4105.989	-15
4108.418	-16
4110.845	-14
4113.27	-17
4115.694	-14
4118.115	-6
4120.535	-73
4122.954	-71
4125.37	-71
4127.785	-68
4130.198	-73
4132.609	-72
4135.019	-78
4137.427	-74
4139.833	-78
4142.237	-79
