Data from I0.2_T15s_Bsub_water_1-10^2_1_RamanShift_1.txt Node
Date: Mon Mar 13 12:40:55 IST 2017
User: aro
Spectrometer: QEPB0276
Trigger mode: 0
Integration Time (sec): 1.500000E1
Scans to average: 1
Electric dark correction enabled: true
Nonlinearity correction enabled: false
Boxcar width: 0
XAxis mode: Raman Shifts
Number of Pixels in Spectrum: 1044
>>>>>Begin Spectral Data<<<<<
160.701	4.25
166.742	0.25
172.777	-0.75
178.805	5.25
184.826	-0.75
190.841	5.25
196.849	2.25
202.85	0.25
208.845	-0.75
214.833	5.25
220.815	1.25
226.789	6.25
232.758	-0.75
238.719	-1.75
244.674	1.25
250.623	0.25
256.565	3.25
262.5	4.25
268.429	2.25
274.351	3.25
280.267	-2.75
286.176	5.25
292.079	4.25
297.975	8.25
303.865	3.25
309.748	2.25
315.625	2.25
321.495	6.25
327.359	-2.75
333.217	5.25
339.068	-0.75
344.912	0.25
350.751	3.25
356.583	-1.75
362.408	0.25
368.227	0.25
374.04	0.25
379.847	1.25
385.647	3.25
391.44	3.25
397.228	0.25
403.009	-0.75
408.784	-0.75
414.553	3.25
420.315	-3.75
426.071	1.25
431.821	1.25
437.565	-3.75
443.302	1.25
449.033	4.25
454.758	0.25
460.477	1.25
466.189	0.25
471.896	-0.75
477.596	-1.75
483.29	4.25
488.978	-0.75
494.66	5.25
500.335	6.25
506.005	9.25
511.668	3.25
517.325	2.25
522.977	0.25
528.622	4.25
534.261	1.25
539.894	2.25
545.521	-0.75
551.141	-1.75
556.756	-0.75
562.365	3.25
567.968	1.25
573.565	-5.75
579.155	-7.75
584.74	-2.75
590.319	-0.75
595.892	-2.75
601.459	5.25
607.02	-1.75
612.575	-1.75
618.124	-0.75
623.667	3.25
629.204	1.25
634.735	4.25
640.261	6.25
645.781	4.25
651.294	4.25
656.802	4.25
662.304	2.25
667.8	1.25
673.29	1.25
678.775	1.25
684.254	-3.75
689.726	-0.75
695.193	1.25
700.655	-2.75
706.11	-3.75
711.56	3.25
717.004	-1.75
722.442	-4.75
727.874	-4.75
733.301	-3.75
738.722	1.25
744.137	-2.75
749.547	-3.75
754.951	2.25
760.349	4.25
765.741	-0.75
771.128	1.25
776.509	-0.75
781.885	-0.75
787.254	6.25
792.618	3.25
797.977	1.25
803.33	2.25
808.677	5.25
814.019	2.25
819.355	-0.75
824.686	4.25
830.011	-0.75
835.33	-0.75
840.644	0.25
845.952	-4.75
851.255	-3.75
856.552	-0.75
861.844	-4.75
867.13	-4.75
872.41	-0.75
877.686	-0.75
882.955	-0.75
888.219	-3.75
893.478	1.25
898.731	0.25
903.979	1.25
909.221	5.25
914.458	2.25
919.69	2.25
924.916	6.25
930.136	5.25
935.351	1.25
940.561	6.25
945.766	2.25
950.965	3.25
956.158	4.25
961.347	-1.75
966.529	1.25
971.707	0.25
976.879	1.25
982.046	-3.75
987.208	2.25
992.364	-1.75
997.515	-1.75
1002.66	-5.75
1007.801	-3.75
1012.936	-0.75
1018.066	-3.75
1023.19	-1.75
1028.309	-3.75
1033.423	5.25
1038.532	1.25
1043.636	-1.75
1048.734	-0.75
1053.827	-0.75
1058.915	2.25
1063.998	3.25
1069.075	0.25
1074.147	0.25
1079.214	-1.75
1084.276	-0.75
1089.333	-0.75
1094.385	1.25
1099.431	3.25
1104.472	0.25
1109.509	-0.75
1114.54	2.25
1119.565	1.25
1124.586	-0.75
1129.602	-0.75
1134.613	-1.75
1139.618	-3.75
1144.619	4.25
1149.614	2.25
1154.604	2.25
1159.589	2.25
1164.57	3.25
1169.545	-0.75
1174.515	2.25
1179.48	-3.75
1184.44	-2.75
1189.395	1.25
1194.345	-1.75
1199.29	1.25
1204.23	-2.75
1209.165	-0.75
1214.095	3.25
1219.021	2.25
1223.941	-2.75
1228.856	0.25
1233.766	-3.75
1238.672	-1.75
1243.572	4.25
1248.467	-2.75
1253.358	0.25
1258.244	1.25
1263.124	-3.75
1268	-2.75
1272.871	-2.75
1277.737	5.25
1282.599	-3.75
1287.455	2.25
1292.306	1.25
1297.153	-0.75
1301.995	-3.75
1306.832	0.25
1311.664	2.25
1316.491	2.25
1321.314	-1.75
1326.132	-0.75
1330.945	0.25
1335.753	-1.75
1340.556	-0.75
1345.354	1.25
1350.148	-4.75
1354.937	-1.75
1359.722	2.25
1364.501	-0.75
1369.276	-1.75
1374.046	1.25
1378.811	0.25
1383.572	3.25
1388.327	4.25
1393.079	-4.75
1397.825	0.25
1402.567	5.25
1407.304	0.25
1412.036	-0.75
1416.764	1.25
1421.487	7.25
1426.205	-1.75
1430.919	0.25
1435.628	0.25
1440.333	1.25
1445.032	-2.75
1449.727	0.25
1454.418	-1.75
1459.104	-0.75
1463.785	3.25
1468.462	-0.75
1473.134	0.25
1477.802	1.25
1482.465	-0.75
1487.123	2.25
1491.777	-2.75
1496.426	5.25
1501.071	0.25
1505.711	2.25
1510.347	6.25
1514.978	3.25
1519.604	2.25
1524.226	-0.75
1528.844	2.25
1533.457	-0.75
1538.065	0.25
1542.669	-0.75
1547.269	-2.75
1551.864	-2.75
1556.454	8.25
1561.041	3.25
1565.622	-0.75
1570.199	-1.75
1574.772	-4.75
1579.34	-2.75
1583.904	-3.75
1588.464	3.25
1593.019	-0.75
1597.569	4.25
1602.115	-0.75
1606.657	0.25
1611.195	5.25
1615.728	6.25
1620.256	4.25
1624.78	2.25
1629.3	2.25
1633.816	3.25
1638.327	1.25
1642.834	3.25
1647.336	0.25
1651.834	-0.75
1656.328	0.25
1660.817	-1.75
1665.302	1.25
1669.783	-3.75
1674.259	-0.75
1678.732	-0.75
1683.199	-0.75
1687.663	-2.75
1692.122	-1.75
1696.577	0.25
1701.028	-1.75
1705.474	-0.75
1709.917	5.25
1714.355	1.25
1718.788	-0.75
1723.218	-1.75
1727.643	2.25
1732.064	0.25
1736.481	3.25
1740.893	3.25
1745.301	-2.75
1749.705	-1.75
1754.105	-1.75
1758.501	1.25
1762.893	3.25
1767.28	-1.75
1771.663	-6.75
1776.042	0.25
1780.417	-3.75
1784.787	-0.75
1789.154	-4.75
1793.516	-4.75
1797.874	-4.75
1802.228	-0.75
1806.578	3.25
1810.924	0.25
1815.266	-2.75
1819.603	3.25
1823.937	2.25
1828.266	3.25
1832.591	1.25
1836.913	6.25
1841.23	-3.75
1845.543	3.25
1849.852	0.25
1854.156	0.25
1858.457	-1.75
1862.754	-2.75
1867.047	0.25
1871.335	-0.75
1875.62	-4.75
1879.9	-1.75
1884.177	-6.75
1888.449	-3.75
1892.718	-2.75
1896.982	-1.75
1901.243	2.25
1905.499	-1.75
1909.752	-4.75
1914	-1.75
1918.245	0.25
1922.485	-3.75
1926.722	1.25
1930.954	4.25
1935.183	3.25
1939.408	2.25
1943.628	-2.75
1947.845	1.25
1952.058	6.25
1956.267	1.25
1960.472	-3.75
1964.673	-0.75
1968.87	-0.75
1973.063	-0.75
1977.252	0.25
1981.438	-5.75
1985.619	2.25
1989.797	-3.75
1993.971	-5.75
1998.14	-2.75
2002.306	3.25
2006.469	-3.75
2010.627	4.25
2014.781	2.25
2018.932	3.25
2023.078	1.25
2027.221	6.25
2031.36	-0.75
2035.495	3.25
2039.627	0.25
2043.754	4.25
2047.878	-0.75
2051.998	-4.75
2056.114	6.25
2060.226	0.25
2064.334	-0.75
2068.439	1.25
2072.54	-3.75
2076.637	-3.75
2080.73	5.25
2084.82	-3.75
2088.906	-2.75
2092.988	-3.75
2097.066	-1.75
2101.14	-1.75
2105.211	2.25
2109.278	0.25
2113.342	-0.75
2117.401	-1.75
2121.457	-1.75
2125.509	-0.75
2129.558	-0.75
2133.602	-1.75
2137.643	1.25
2141.681	-0.75
2145.714	-0.75
2149.744	-2.75
2153.77	-4.75
2157.793	0.25
2161.812	2.25
2165.827	0.25
2169.838	-2.75
2173.846	4.25
2177.851	-1.75
2181.851	1.25
2185.848	-1.75
2189.841	4.25
2193.831	-0.75
2197.817	4.25
2201.799	-2.75
2205.778	-1.75
2209.753	3.25
2213.725	-0.75
2217.693	-0.75
2221.657	-1.75
2225.618	-0.75
2229.575	-4.75
2233.529	0.25
2237.479	-2.75
2241.425	-3.75
2245.368	-5.75
2249.307	1.25
2253.243	-6.75
2257.175	-2.75
2261.104	-0.75
2265.029	0.25
2268.95	-2.75
2272.868	-0.75
2276.783	2.25
2280.694	4.25
2284.601	5.25
2288.505	8.25
2292.405	-2.75
2296.302	0.25
2300.195	2.25
2304.085	-2.75
2307.971	3.25
2311.854	-0.75
2315.734	-4.75
2319.609	-1.75
2323.482	-4.75
2327.351	-5.75
2331.216	-3.75
2335.078	-3.75
2338.937	-7.75
2342.792	-5.75
2346.643	-4.75
2350.492	-1.75
2354.336	-0.75
2358.178	-1.75
2362.015	2.25
2365.85	-0.75
2369.681	6.25
2373.508	3.25
2377.333	0.25
2381.153	0.25
2384.971	1.25
2388.785	-0.75
2392.595	0.25
2396.402	0.25
2400.206	1.25
2404.007	-0.75
2407.804	-1.75
2411.597	0.25
2415.388	2.25
2419.174	-0.75
2422.958	-3.75
2426.738	-0.75
2430.515	0.25
2434.289	-1.75
2438.059	-1.75
2441.825	-3.75
2445.589	-0.75
2449.349	5.25
2453.106	2.25
2456.859	-0.75
2460.61	-0.75
2464.356	2.25
2468.1	-1.75
2471.84	0.25
2475.577	0.25
2479.311	1.25
2483.041	3.25
2486.768	-1.75
2490.492	-2.75
2494.213	-0.75
2497.93	4.25
2501.644	-1.75
2505.355	1.25
2509.062	4.25
2512.766	2.25
2516.467	2.25
2520.165	2.25
2523.859	1.25
2527.551	3.25
2531.239	-3.75
2534.923	-4.75
2538.605	3.25
2542.283	-2.75
2545.958	0.25
2549.63	-1.75
2553.299	1.25
2556.964	-4.75
2560.626	-0.75
2564.285	-3.75
2567.941	-1.75
2571.594	-1.75
2575.243	-2.75
2578.89	-1.75
2582.533	-3.75
2586.173	-1.75
2589.809	-2.75
2593.443	3.25
2597.073	2.25
2600.701	-1.75
2604.325	-0.75
2607.946	-1.75
2611.564	0.25
2615.178	-0.75
2618.79	0.25
2622.398	2.25
2626.004	3.25
2629.606	-1.75
2633.205	-2.75
2636.801	1.25
2640.394	0.25
2643.983	1.25
2647.57	-2.75
2651.153	2.25
2654.734	2.25
2658.311	-1.75
2661.885	-2.75
2665.456	2.25
2669.025	-3.75
2672.589	-5.75
2676.151	1.25
2679.71	-2.75
2683.266	1.25
2686.819	2.25
2690.368	-0.75
2693.915	-5.75
2697.458	1.25
2700.999	-0.75
2704.536	-2.75
2708.071	3.25
2711.602	-3.75
2715.13	-2.75
2718.656	-0.75
2722.178	-2.75
2725.697	7.25
2729.214	1.25
2732.727	2.25
2736.237	4.25
2739.744	5.25
2743.249	-3.75
2746.75	-0.75
2750.248	-4.75
2753.743	-0.75
2757.236	2.25
2760.725	-0.75
2764.211	-7.75
2767.695	-0.75
2771.175	-4.75
2774.652	-8.75
2778.127	-5.75
2781.598	-3.75
2785.067	2.25
2788.532	1.25
2791.995	-2.75
2795.455	-2.75
2798.911	-0.75
2802.365	0.25
2805.816	2.25
2809.264	4.25
2812.709	-2.75
2816.151	-0.75
2819.59	1.25
2823.026	8.25
2826.46	0.25
2829.89	-3.75
2833.318	4.25
2836.742	-2.75
2840.164	4.25
2843.583	-0.75
2846.999	-3.75
2850.412	-1.75
2853.822	-2.75
2857.229	-5.75
2860.634	-2.75
2864.035	-4.75
2867.434	-4.75
2870.83	-2.75
2874.223	-2.75
2877.613	-1.75
2881	3.25
2884.385	-1.75
2887.766	0.25
2891.145	-0.75
2894.521	0.25
2897.894	1.25
2901.264	0.25
2904.631	1.25
2907.996	2.25
2911.358	3.25
2914.717	-0.75
2918.073	0.25
2921.426	-3.75
2924.777	-0.75
2928.124	2.25
2931.469	4.25
2934.811	2.25
2938.15	3.25
2941.487	-2.75
2944.821	-5.75
2948.152	0.25
2951.48	-2.75
2954.805	-4.75
2958.128	-4.75
2961.447	-5.75
2964.765	0.25
2968.079	-2.75
2971.39	-0.75
2974.699	0.25
2978.005	2.25
2981.308	0.25
2984.609	1.25
2987.907	1.25
2991.202	-1.75
2994.494	0.25
2997.784	1.25
3001.07	0.25
3004.355	3.25
3007.636	4.25
3010.915	-0.75
3014.191	-1.75
3017.464	-0.75
3020.734	0.25
3024.002	-1.75
3027.267	4.25
3030.53	-2.75
3033.789	-6.75
3037.046	-2.75
3040.301	-5.75
3043.552	0.25
3046.801	-3.75
3050.048	0.25
3053.291	2.25
3056.532	1.25
3059.771	1.25
3063.006	2.25
3066.239	1.25
3069.469	5.25
3072.697	5.25
3075.922	2.25
3079.144	1.25
3082.364	4.25
3085.581	4.25
3088.795	1.25
3092.007	1.25
3095.216	-0.75
3098.423	2.25
3101.627	4.25
3104.828	-1.75
3108.026	-0.75
3111.222	-2.75
3114.416	-2.75
3117.607	-1.75
3120.795	-3.75
3123.98	-1.75
3127.163	-4.75
3130.344	1.25
3133.521	0.25
3136.696	-0.75
3139.869	-2.75
3143.039	0.25
3146.206	1.25
3149.371	-1.75
3152.533	0.25
3155.693	-5.75
3158.85	-2.75
3162.005	6.25
3165.157	0.25
3168.306	3.25
3171.453	-0.75
3174.597	4.25
3177.739	2.25
3180.878	-3.75
3184.014	-3.75
3187.149	0.25
3190.28	1.25
3193.409	0.25
3196.536	-3.75
3199.659	-0.75
3202.781	-2.75
3205.9	-1.75
3209.016	-6.75
3212.13	0.25
3215.241	2.25
3218.35	-0.75
3221.456	-0.75
3224.56	-3.75
3227.661	-3.75
3230.76	1.25
3233.856	-0.75
3236.95	2.25
3240.041	-3.75
3243.13	1.25
3246.216	-1.75
3249.3	-0.75
3252.382	1.25
3255.46	-0.75
3258.537	-0.75
3261.611	3.25
3264.682	1.25
3267.751	0.25
3270.818	-1.75
3273.882	-1.75
3276.943	-1.75
3280.002	0.25
3283.059	-3.75
3286.113	-0.75
3289.165	2.25
3292.214	-1.75
3295.261	-0.75
3298.306	-4.75
3301.348	4.25
3304.387	-0.75
3307.425	1.25
3310.459	-1.75
3313.492	-2.75
3316.521	-3.75
3319.549	0.25
3322.574	-3.75
3325.597	-2.75
3328.617	-0.75
3331.635	3.25
3334.65	-4.75
3337.663	3.25
3340.674	3.25
3343.682	4.25
3346.688	-0.75
3349.691	-7.75
3352.692	3.25
3355.691	-6.75
3358.687	-0.75
3361.681	-0.75
3364.673	-1.75
3367.662	-4.75
3370.649	-2.75
3373.633	-2.75
3376.615	-0.75
3379.595	-1.75
3382.572	-2.75
3385.547	0.25
3388.52	-2.75
3391.49	-0.75
3394.458	0.25
3397.424	2.25
3400.387	-4.75
3403.348	0.25
3406.307	3.25
3409.263	4.25
3412.217	3.25
3415.168	2.25
3418.118	0.25
3421.065	-0.75
3424.009	-4.75
3426.951	4.25
3429.891	-2.75
3432.829	-4.75
3435.764	-5.75
3438.697	0.25
3441.628	-2.75
3444.557	-1.75
3447.483	-3.75
3450.407	0.25
3453.328	0.25
3456.247	-3.75
3459.164	-4.75
3462.079	-3.75
3464.991	3.25
3467.902	5.25
3470.809	-1.75
3473.715	-1.75
3476.618	-0.75
3479.519	1.25
3482.418	1.25
3485.315	1.25
3488.209	1.25
3491.101	0.25
3493.99	1.25
3496.878	-1.75
3499.763	1.25
3502.646	-0.75
3505.527	-3.75
3508.405	-7.75
3511.281	-4.75
3514.155	0.25
3517.027	-2.75
3519.897	0.25
3522.764	-4.75
3525.629	-5.75
3528.492	-1.75
3531.352	1.25
3534.211	1.25
3537.067	-4.75
3539.921	3.25
3542.773	3.25
3545.622	-0.75
3548.469	5.25
3551.315	-2.75
3554.157	1.25
3556.998	-0.75
3559.837	0.25
3562.673	-0.75
3565.507	-5.75
3568.339	-0.75
3571.169	-1.75
3573.996	-4.75
3576.822	0.25
3579.645	2.25
3582.466	-0.75
3585.285	0.25
3588.101	-0.75
3590.916	-0.75
3593.728	0.25
3596.538	1.25
3599.346	0.25
3602.152	-2.75
3604.956	-1.75
3607.757	-0.75
3610.556	-4.75
3613.354	-5.75
3616.149	-0.75
3618.942	0.25
3621.732	-1.75
3624.521	0.25
3627.307	-3.75
3630.092	3.25
3632.874	-2.75
3635.654	1.25
3638.432	0.25
3641.208	1.25
3643.982	0.25
3646.753	0.25
3649.523	2.25
3652.29	6.25
3655.055	7.25
3657.818	-0.75
3660.579	2.25
3663.338	-1.75
3666.095	1.25
3668.849	0.25
3671.602	3.25
3674.352	-3.75
3677.101	-2.75
3679.847	0.25
3682.591	-3.75
3685.333	-2.75
3688.073	-1.75
3690.811	-4.75
3693.547	-7.75
3696.281	-0.75
3699.013	-4.75
3701.742	-4.75
3704.47	-2.75
3707.195	-3.75
3709.919	-4.75
3712.64	-0.75
3715.359	-1.75
3718.076	2.25
3720.792	0.25
3723.505	-1.75
3726.216	0.25
3728.925	3.25
3731.632	-1.75
3734.336	-2.75
3737.039	1.25
3739.74	-0.75
3742.439	-2.75
3745.136	0.25
3747.83	-3.75
3750.523	-0.75
3753.213	-1.75
3755.902	-2.75
3758.589	-6.75
3761.273	-1.75
3763.956	-1.75
3766.636	-0.75
3769.315	-0.75
3771.991	-0.75
3774.665	1.25
3777.338	4.25
3780.008	-1.75
3782.677	-0.75
3785.343	-6.75
3788.007	-1.75
3790.67	-3.75
3793.33	-2.75
3795.989	0.25
3798.645	-1.75
3801.299	0.25
3803.952	0.25
3806.602	-7.75
3809.251	-1.75
3811.897	-1.75
3814.542	-3.75
3817.184	-0.75
3819.825	-1.75
3822.463	-3.75
3825.1	0.25
3827.735	-0.75
3830.367	-5.75
3832.998	1.25
3835.627	-2.75
3838.253	-0.75
3840.878	0.25
3843.501	-0.75
3846.122	0.25
3848.741	-4.75
3851.358	1.25
3853.973	-0.75
3856.586	-0.75
3859.197	5.25
3861.806	3.25
3864.414	-0.75
3867.019	6.25
3869.622	-0.75
3872.224	1.25
3874.823	-0.75
3877.421	-4.75
3880.016	-0.75
3882.61	-0.75
3885.202	-1.75
3887.792	-2.75
3890.38	2.25
3892.966	-2.75
3895.55	-1.75
3898.132	-1.75
3900.713	2.25
3903.291	1.25
3905.868	-1.75
3908.442	1.25
3911.015	-0.75
3913.586	0.25
3916.155	0.25
3918.722	3.25
3921.287	0.25
3923.85	2.25
3926.411	0.25
3928.971	3.25
3931.528	-2.75
3934.084	-3.75
3936.638	2.25
3939.19	-0.75
3941.74	-1.75
3944.288	0.25
3946.834	1.25
3949.378	-0.75
3951.921	0.25
3954.462	-1.75
3957	-1.75
3959.537	3.25
3962.072	-1.75
3964.606	-2.75
3967.137	-0.75
3969.667	-0.75
3972.194	0.25
3974.72	3.25
3977.244	-3.75
3979.766	-2.75
3982.286	-1.75
3984.805	-6.75
3987.321	-1.75
3989.836	0.25
3992.349	-2.75
3994.86	0.25
3997.369	1.25
3999.877	0.25
4002.382	-2.75
4004.886	-1.75
4007.388	-2.75
4009.888	-5.75
4012.386	0.25
4014.883	-0.75
4017.377	-0.75
4019.87	2.25
4022.361	-6.75
4024.85	-0.75
4027.338	2.25
4029.823	1.25
4032.307	6.25
4034.789	3.25
4037.269	3.25
4039.747	2.25
4042.224	0.25
4044.699	-1.75
4047.172	-0.75
4049.643	-1.75
4052.112	-3.75
4054.58	-4.75
4057.046	-2.75
4059.51	-4.75
4061.972	-1.75
4064.432	-4.75
4066.891	-1.75
4069.348	-1.75
4071.803	-6.75
4074.256	2.25
4076.708	0.25
4079.158	-3.75
4081.606	2.25
4084.052	1.25
4086.497	3.25
4088.939	1.25
4091.38	4.25
4093.819	3.25
4096.257	-2.75
4098.693	-2.75
4101.127	-1.75
4103.559	-2.75
4105.989	-3.75
4108.418	-1.75
4110.845	-0.75
4113.27	0.25
4115.694	-2.75
4118.115	-2.75
4120.535	6.25
4122.954	-0.75
4125.37	0.25
4127.785	-0.75
4130.198	0.25
4132.609	-1.75
4135.019	-1.75
4137.427	-3.75
4139.833	-1.75
4142.237	-1.75
