Data from I0.5_T15s_Bsub_water_1-1_3_RamanShift_1.txt Node
Date: Mon Mar 13 14:34:47 IST 2017
User: aro
Spectrometer: QEPB0276
Trigger mode: 0
Integration Time (sec): 1.500000E1
Scans to average: 1
Electric dark correction enabled: true
Nonlinearity correction enabled: false
Boxcar width: 0
XAxis mode: Raman Shifts
Number of Pixels in Spectrum: 1044
>>>>>Begin Spectral Data<<<<<
160.701	-34
166.742	1
172.777	93
178.805	375
184.826	1089
190.841	2314
196.849	3735
202.85	4616
208.845	4856
214.833	4703
220.815	4586
226.789	4508
232.758	4444
238.719	4297
244.674	4078
250.623	3782
256.565	3527
262.5	3331
268.429	3251
274.351	3413
280.267	3546
286.176	3484
292.079	3397
297.975	3315
303.865	3242
309.748	3167
315.625	3094
321.495	3045
327.359	3006
333.217	2967
339.068	2944
344.912	2928
350.751	2888
356.583	2913
362.408	2878
368.227	2880
374.04	2843
379.847	2842
385.647	2762
391.44	2605
397.228	2309
403.009	1982
408.784	1652
414.553	1054
420.315	547
426.071	1199
431.821	2395
437.565	2817
443.302	2850
449.033	2841
454.758	2823
460.477	2849
466.189	2815
471.896	2818
477.596	2797
483.29	2799
488.978	2794
494.66	2780
500.335	2755
506.005	2727
511.668	2664
517.325	2648
522.977	2625
528.622	2582
534.261	2563
539.894	2548
545.521	2520
551.141	2535
556.756	2509
562.365	2500
567.968	2503
573.565	2470
579.155	2487
584.74	2477
590.319	2498
595.892	2464
601.459	2447
607.02	2422
612.575	2417
618.124	2395
623.667	2381
629.204	2331
634.735	2181
640.261	1991
645.781	1996
651.294	2167
656.802	2301
662.304	2303
667.8	2339
673.29	2326
678.775	2329
684.254	2336
689.726	2317
695.193	2320
700.655	2288
706.11	2298
711.56	2298
717.004	2274
722.442	2280
727.874	2259
733.301	2282
738.722	2241
744.137	2248
749.547	2251
754.951	2239
760.349	2245
765.741	2231
771.128	2248
776.509	2259
781.885	2255
787.254	2252
792.618	2254
797.977	2246
803.33	2225
808.677	2212
814.019	2201
819.355	2193
824.686	2167
830.011	2149
835.33	2083
840.644	1827
845.952	1456
851.255	1347
856.552	1666
861.844	1773
867.13	1283
872.41	757
877.686	1163
882.955	1869
888.219	2071
893.478	2107
898.731	2055
903.979	2046
909.221	2059
914.458	2045
919.69	2063
924.916	2062
930.136	2059
935.351	2074
940.561	2080
945.766	2074
950.965	2054
956.158	2061
961.347	2041
966.529	2017
971.707	1999
976.879	1980
982.046	1959
987.208	1957
992.364	1951
997.515	1898
1002.66	1705
1007.801	1578
1012.936	1762
1018.066	1988
1023.19	2057
1028.309	2077
1033.423	2067
1038.532	2063
1043.636	2072
1048.734	2037
1053.827	2015
1058.915	2009
1063.998	2013
1069.075	1996
1074.147	2022
1079.214	2020
1084.276	2055
1089.333	2050
1094.385	2088
1099.431	2100
1104.472	2098
1109.509	2087
1114.54	2044
1119.565	2032
1124.586	2014
1129.602	2000
1134.613	1976
1139.618	1998
1144.619	1976
1149.614	1979
1154.604	1995
1159.589	2013
1164.57	2033
1169.545	2038
1174.515	2030
1179.48	2029
1184.44	2026
1189.395	2019
1194.345	2016
1199.29	1970
1204.23	1922
1209.165	1940
1214.095	2009
1219.021	2049
1223.941	2092
1228.856	2108
1233.766	2111
1238.672	2122
1243.572	2110
1248.467	2081
1253.358	2084
1258.244	2042
1263.124	2027
1268	1951
1272.871	1953
1277.737	1967
1282.599	1970
1287.455	1982
1292.306	1973
1297.153	1991
1301.995	2017
1306.832	2021
1311.664	2034
1316.491	2040
1321.314	2048
1326.132	2012
1330.945	1981
1335.753	1947
1340.556	1918
1345.354	1895
1350.148	1889
1354.937	1882
1359.722	1874
1364.501	1909
1369.276	1943
1374.046	1942
1378.811	1927
1383.572	1948
1388.327	1930
1393.079	1931
1397.825	1912
1402.567	1889
1407.304	1866
1412.036	1856
1416.764	1854
1421.487	1842
1426.205	1843
1430.919	1879
1435.628	1882
1440.333	1888
1445.032	1939
1449.727	1919
1454.418	1933
1459.104	1926
1463.785	1907
1468.462	1880
1473.134	1889
1477.802	1846
1482.465	1849
1487.123	1843
1491.777	1860
1496.426	1858
1501.071	1887
1505.711	1913
1510.347	1942
1514.978	1944
1519.604	1971
1524.226	1978
1528.844	1973
1533.457	1990
1538.065	1983
1542.669	1985
1547.269	1957
1551.864	1959
1556.454	1972
1561.041	1970
1565.622	1969
1570.199	1991
1574.772	2001
1579.34	2023
1583.904	2031
1588.464	2052
1593.019	2078
1597.569	2074
1602.115	2051
1606.657	2068
1611.195	2073
1615.728	2060
1620.256	2077
1624.78	2092
1629.3	2096
1633.816	2129
1638.327	2136
1642.834	2162
1647.336	2170
1651.834	2200
1656.328	2190
1660.817	2199
1665.302	2165
1669.783	2144
1674.259	2119
1678.732	2060
1683.199	2013
1687.663	1953
1692.122	1897
1696.577	1871
1701.028	1845
1705.474	1828
1709.917	1822
1714.355	1805
1718.788	1792
1723.218	1765
1727.643	1760
1732.064	1726
1736.481	1694
1740.893	1677
1745.301	1646
1749.705	1589
1754.105	1551
1758.501	1535
1762.893	1499
1767.28	1446
1771.663	1274
1776.042	436
1780.417	-580
1784.787	-79
1789.154	1129
1793.516	1441
1797.874	1495
1802.228	1542
1806.578	1550
1810.924	1553
1815.266	1540
1819.603	1522
1823.937	1514
1828.266	1497
1832.591	1487
1836.913	1459
1841.23	1477
1845.543	1484
1849.852	1479
1854.156	1471
1858.457	1458
1862.754	1462
1867.047	1451
1871.335	1472
1875.62	1481
1879.9	1475
1884.177	1479
1888.449	1446
1892.718	1425
1896.982	1215
1901.243	981
1905.499	1103
1909.752	1385
1914	1437
1918.245	1434
1922.485	1448
1926.722	1463
1930.954	1469
1935.183	1490
1939.408	1502
1943.628	1518
1947.845	1516
1952.058	1504
1956.267	1506
1960.472	1500
1964.673	1494
1968.87	1472
1973.063	1460
1977.252	1426
1981.438	1449
1985.619	1425
1989.797	1423
1993.971	1415
1998.14	1410
2002.306	1430
2006.469	1435
2010.627	1449
2014.781	1445
2018.932	1459
2023.078	1461
2027.221	1454
2031.36	1418
2035.495	1408
2039.627	1399
2043.754	1380
2047.878	1361
2051.998	1340
2056.114	1349
2060.226	1383
2064.334	1383
2068.439	1396
2072.54	1399
2076.637	1395
2080.73	1419
2084.82	1422
2088.906	1417
2092.988	1419
2097.066	1384
2101.14	1375
2105.211	1377
2109.278	1365
2113.342	1376
2117.401	1358
2121.457	1367
2125.509	1364
2129.558	1342
2133.602	1348
2137.643	1344
2141.681	1346
2145.714	1338
2149.744	1349
2153.77	1332
2157.793	1326
2161.812	1311
2165.827	1305
2169.838	1289
2173.846	1261
2177.851	1247
2181.851	1237
2185.848	1225
2189.841	1224
2193.831	1215
2197.817	1213
2201.799	1206
2205.778	1201
2209.753	1204
2213.725	1211
2217.693	1219
2221.657	1206
2225.618	1214
2229.575	1202
2233.529	1213
2237.479	1192
2241.425	1188
2245.368	1173
2249.307	1158
2253.243	1156
2257.175	1118
2261.104	1128
2265.029	1137
2268.95	1114
2272.868	1098
2276.783	1103
2280.694	1083
2284.601	1063
2288.505	1067
2292.405	1059
2296.302	1033
2300.195	1040
2304.085	1017
2307.971	1002
2311.854	1001
2315.734	993
2319.609	958
2323.482	953
2327.351	962
2331.216	944
2335.078	957
2338.937	932
2342.792	927
2346.643	934
2350.492	928
2354.336	923
2358.178	911
2362.015	924
2365.85	923
2369.681	916
2373.508	908
2377.333	893
2381.153	833
2384.971	607
2388.785	570
2392.595	732
2396.402	858
2400.206	879
2404.007	889
2407.804	871
2411.597	880
2415.388	868
2419.174	869
2422.958	880
2426.738	868
2430.515	875
2434.289	876
2438.059	869
2441.825	875
2445.589	868
2449.349	862
2453.106	846
2456.859	851
2460.61	838
2464.356	835
2468.1	834
2471.84	826
2475.577	808
2479.311	804
2483.041	800
2486.768	807
2490.492	826
2494.213	816
2497.93	829
2501.644	826
2505.355	812
2509.062	812
2512.766	813
2516.467	791
2520.165	751
2523.859	744
2527.551	791
2531.239	781
2534.923	787
2538.605	775
2542.283	771
2545.958	777
2549.63	775
2553.299	786
2556.964	763
2560.626	762
2564.285	772
2567.941	770
2571.594	757
2575.243	746
2578.89	753
2582.533	735
2586.173	734
2589.809	751
2593.443	723
2597.073	723
2600.701	717
2604.325	707
2607.946	708
2611.564	699
2615.178	715
2618.79	715
2622.398	720
2626.004	702
2629.606	718
2633.205	698
2636.801	698
2640.394	687
2643.983	693
2647.57	679
2651.153	670
2654.734	668
2658.311	649
2661.885	638
2665.456	632
2669.025	621
2672.589	627
2676.151	625
2679.71	622
2683.266	612
2686.819	610
2690.368	597
2693.915	596
2697.458	587
2700.999	570
2704.536	575
2708.071	554
2711.602	546
2715.13	553
2718.656	563
2722.178	541
2725.697	536
2729.214	538
2732.727	559
2736.237	544
2739.744	528
2743.249	549
2746.75	548
2750.248	546
2753.743	563
2757.236	548
2760.725	549
2764.211	544
2767.695	544
2771.175	532
2774.652	536
2778.127	530
2781.598	524
2785.067	505
2788.532	504
2791.995	503
2795.455	496
2798.911	472
2802.365	481
2805.816	466
2809.264	468
2812.709	462
2816.151	449
2819.59	451
2823.026	448
2826.46	441
2829.89	424
2833.318	417
2836.742	401
2840.164	374
2843.583	349
2846.999	340
2850.412	302
2853.822	283
2857.229	232
2860.634	186
2864.035	109
2867.434	0
2870.83	-197
2874.223	-992
2877.613	-2736
2881	-2974
2884.385	-1374
2887.766	-317
2891.145	-57
2894.521	82
2897.894	167
2901.264	211
2904.631	255
2907.996	302
2911.358	317
2914.717	344
2918.073	362
2921.426	390
2924.777	389
2928.124	399
2931.469	406
2934.811	411
2938.15	408
2941.487	385
2944.821	391
2948.152	384
2951.48	383
2954.805	402
2958.128	407
2961.447	414
2964.765	431
2968.079	442
2971.39	463
2974.699	460
2978.005	471
2981.308	473
2984.609	477
2987.907	493
2991.202	481
2994.494	487
2997.784	469
3001.07	467
3004.355	451
3007.636	455
3010.915	482
3014.191	504
3017.464	539
3020.734	551
3024.002	568
3027.267	593
3030.53	593
3033.789	602
3037.046	614
3040.301	625
3043.552	627
3046.801	635
3050.048	641
3053.291	651
3056.532	663
3059.771	657
3063.006	656
3066.239	671
3069.469	664
3072.697	684
3075.922	686
3079.144	717
3082.364	765
3085.581	781
3088.795	800
3092.007	838
3095.216	848
3098.423	854
3101.627	887
3104.828	905
3108.026	910
3111.222	922
3114.416	933
3117.607	946
3120.795	948
3123.98	970
3127.163	965
3130.344	974
3133.521	986
3136.696	1021
3139.869	1036
3143.039	1060
3146.206	1103
3149.371	1118
3152.533	1115
3155.693	1122
3158.85	1134
3162.005	1125
3165.157	1130
3168.306	1132
3171.453	1129
3174.597	1107
3177.739	1108
3180.878	1091
3184.014	1051
3187.149	1045
3190.28	1042
3193.409	1045
3196.536	1083
3199.659	1106
3202.781	1117
3205.9	1123
3209.016	1140
3212.13	1151
3215.241	1153
3218.35	1131
3221.456	1147
3224.56	1110
3227.661	1115
3230.76	1074
3233.856	1068
3236.95	1042
3240.041	1029
3243.13	994
3246.216	996
3249.3	978
3252.382	981
3255.46	1006
3258.537	1023
3261.611	1016
3264.682	1018
3267.751	1030
3270.818	1035
3273.882	1020
3276.943	1042
3280.002	1025
3283.059	1010
3286.113	992
3289.165	979
3292.214	967
3295.261	940
3298.306	899
3301.348	881
3304.387	849
3307.425	828
3310.459	809
3313.492	816
3316.521	796
3319.549	804
3322.574	805
3325.597	816
3328.617	800
3331.635	791
3334.65	802
3337.663	792
3340.674	798
3343.682	771
3346.688	761
3349.691	759
3352.692	736
3355.691	699
3358.687	674
3361.681	646
3364.673	632
3367.662	591
3370.649	590
3373.633	625
3376.615	650
3379.595	655
3382.572	660
3385.547	674
3388.52	672
3391.49	652
3394.458	648
3397.424	653
3400.387	636
3403.348	628
3406.307	619
3409.263	594
3412.217	584
3415.168	550
3418.118	529
3421.065	491
3424.009	444
3426.951	413
3429.891	415
3432.829	394
3435.764	389
3438.697	385
3441.628	384
3444.557	400
3447.483	391
3450.407	389
3453.328	366
3456.247	363
3459.164	328
3462.079	303
3464.991	266
3467.902	210
3470.809	126
3473.715	13
3476.618	-127
3479.519	-322
3482.418	-544
3485.315	-720
3488.209	-877
3491.101	-934
3493.99	-907
3496.878	-861
3499.763	-811
3502.646	-853
3505.527	-915
3508.405	-972
3511.281	-930
3514.155	-851
3517.027	-773
3519.897	-695
3522.764	-684
3525.629	-679
3528.492	-724
3531.352	-793
3534.211	-942
3537.067	-1124
3539.921	-1277
3542.773	-1413
3545.622	-1481
3548.469	-1412
3551.315	-1289
3554.157	-1106
3556.998	-928
3559.837	-759
3562.673	-628
3565.507	-519
3568.339	-441
3571.169	-395
3573.996	-378
3576.822	-387
3579.645	-531
3582.466	-1169
3585.285	-1777
3588.101	-1740
3590.916	-1166
3593.728	-824
3596.538	-817
3599.346	-901
3602.152	-993
3604.956	-1041
3607.757	-1050
3610.556	-1018
3613.354	-957
3616.149	-891
3618.942	-790
3621.732	-709
3624.521	-644
3627.307	-575
3630.092	-544
3632.874	-503
3635.654	-479
3638.432	-464
3641.208	-479
3643.982	-496
3646.753	-526
3649.523	-580
3652.29	-611
3655.055	-630
3657.818	-658
3660.579	-662
3663.338	-633
3666.095	-590
3668.849	-529
3671.602	-469
3674.352	-402
3677.101	-341
3679.847	-291
3682.591	-258
3685.333	-222
3688.073	-199
3690.811	-181
3693.547	-174
3696.281	-161
3699.013	-161
3701.742	-158
3704.47	-152
3707.195	-161
3709.919	-160
3712.64	-160
3715.359	-162
3718.076	-161
3720.792	-156
3723.505	-150
3726.216	-141
3728.925	-137
3731.632	-136
3734.336	-126
3737.039	-114
3739.74	-116
3742.439	-115
3745.136	-115
3747.83	-109
3750.523	-111
3753.213	-110
3755.902	-111
3758.589	-110
3761.273	-111
3763.956	-115
3766.636	-121
3769.315	-124
3771.991	-132
3774.665	-133
3777.338	-142
3780.008	-144
3782.677	-150
3785.343	-146
3788.007	-151
3790.67	-140
3793.33	-143
3795.989	-135
3798.645	-137
3801.299	-131
3803.952	-133
3806.602	-132
3809.251	-124
3811.897	-127
3814.542	-122
3817.184	-119
3819.825	-117
3822.463	-123
3825.1	-119
3827.735	-120
3830.367	-118
3832.998	-120
3835.627	-116
3838.253	-116
3840.878	-117
3843.501	-118
3846.122	-119
3848.741	-117
3851.358	-117
3853.973	-118
3856.586	-119
3859.197	-113
3861.806	-118
3864.414	-114
3867.019	-120
3869.622	-110
3872.224	-115
3874.823	-112
3877.421	-112
3880.016	-113
3882.61	-112
3885.202	-111
3887.792	-116
3890.38	-122
3892.966	-121
3895.55	-116
3898.132	-121
3900.713	-118
3903.291	-117
3905.868	-121
3908.442	-117
3911.015	-112
3913.586	-111
3916.155	-110
3918.722	-107
3921.287	-113
3923.85	-115
3926.411	-115
3928.971	-112
3931.528	-114
3934.084	-112
3936.638	-116
3939.19	-118
3941.74	-116
3944.288	-116
3946.834	-119
3949.378	-116
3951.921	-120
3954.462	-119
3957	-119
3959.537	-116
3962.072	-115
3964.606	-122
3967.137	-118
3969.667	-117
3972.194	-112
3974.72	-111
3977.244	-117
3979.766	-107
3982.286	-107
3984.805	-111
3987.321	-108
3989.836	-109
3992.349	-107
3994.86	-107
3997.369	-107
3999.877	-106
4002.382	-112
4004.886	-114
4007.388	-104
4009.888	-111
4012.386	-113
4014.883	-109
4017.377	-107
4019.87	-108
4022.361	-112
4024.85	-107
4027.338	-104
4029.823	-108
4032.307	-107
4034.789	-112
4037.269	-108
4039.747	-106
4042.224	-109
4044.699	-111
4047.172	-106
4049.643	-110
4052.112	-108
4054.58	-116
4057.046	-110
4059.51	-113
4061.972	-113
4064.432	-111
4066.891	-112
4069.348	-123
4071.803	-136
4074.256	-220
4076.708	-335
4079.158	-342
4081.606	-246
4084.052	-183
4086.497	-146
4088.939	-133
4091.38	-126
4093.819	-126
4096.257	-110
4098.693	-109
4101.127	-109
4103.559	-108
4105.989	-70
4108.418	-67
4110.845	-67
4113.27	-65
4115.694	-55
4118.115	-44
4120.535	-122
4122.954	-122
4125.37	-118
4127.785	-127
4130.198	-171
4132.609	-221
4135.019	-107
4137.427	-109
4139.833	-107
4142.237	-112
