Data from I0.5_T15s_Bsub_water_1-10^2_3_RamanShift_1.txt Node
Date: Mon Mar 13 14:30:17 IST 2017
User: aro
Spectrometer: QEPB0276
Trigger mode: 0
Integration Time (sec): 1.500000E1
Scans to average: 1
Electric dark correction enabled: true
Nonlinearity correction enabled: false
Boxcar width: 0
XAxis mode: Raman Shifts
Number of Pixels in Spectrum: 1044
>>>>>Begin Spectral Data<<<<<
160.701	-29
166.742	1
172.777	104
178.805	428
184.826	1225
190.841	2619
196.849	4237
202.85	5301
208.845	5517
214.833	5382
220.815	5211
226.789	5090
232.758	5039
238.719	4909
244.674	4667
250.623	4349
256.565	4060
262.5	3816
268.429	3726
274.351	3865
280.267	3996
286.176	3930
292.079	3801
297.975	3729
303.865	3595
309.748	3515
315.625	3486
321.495	3378
327.359	3331
333.217	3293
339.068	3274
344.912	3270
350.751	3231
356.583	3196
362.408	3183
368.227	3136
374.04	3148
379.847	3128
385.647	3103
391.44	2886
397.228	2594
403.009	2274
408.784	1971
414.553	1365
420.315	801
426.071	1499
431.821	2696
437.565	3076
443.302	3124
449.033	3122
454.758	3139
460.477	3106
466.189	3111
471.896	3100
477.596	3059
483.29	3067
488.978	3069
494.66	3035
500.335	3024
506.005	2970
511.668	2963
517.325	2896
522.977	2839
528.622	2822
534.261	2788
539.894	2782
545.521	2761
551.141	2769
556.756	2738
562.365	2743
567.968	2723
573.565	2727
579.155	2740
584.74	2712
590.319	2698
595.892	2692
601.459	2686
607.02	2664
612.575	2623
618.124	2587
623.667	2592
629.204	2527
634.735	2354
640.261	2186
645.781	2206
651.294	2386
656.802	2498
662.304	2514
667.8	2519
673.29	2505
678.775	2516
684.254	2505
689.726	2495
695.193	2501
700.655	2487
706.11	2461
711.56	2456
717.004	2452
722.442	2448
727.874	2425
733.301	2421
738.722	2423
744.137	2418
749.547	2399
754.951	2433
760.349	2424
765.741	2432
771.128	2411
776.509	2429
781.885	2406
787.254	2429
792.618	2409
797.977	2413
803.33	2392
808.677	2372
814.019	2365
819.355	2331
824.686	2311
830.011	2297
835.33	2237
840.644	1990
845.952	1581
851.255	1498
856.552	1811
861.844	1918
867.13	1406
872.41	915
877.686	1322
882.955	1986
888.219	2224
893.478	2230
898.731	2203
903.979	2169
909.221	2177
914.458	2166
919.69	2173
924.916	2198
930.136	2184
935.351	2195
940.561	2194
945.766	2189
950.965	2182
956.158	2150
961.347	2158
966.529	2133
971.707	2087
976.879	2086
982.046	2063
987.208	2052
992.364	2053
997.515	1994
1002.66	1794
1007.801	1700
1012.936	1873
1018.066	2115
1023.19	2196
1028.309	2216
1033.423	2193
1038.532	2213
1043.636	2148
1048.734	2142
1053.827	2150
1058.915	2132
1063.998	2097
1069.075	2103
1074.147	2105
1079.214	2144
1084.276	2149
1089.333	2178
1094.385	2180
1099.431	2203
1104.472	2201
1109.509	2188
1114.54	2182
1119.565	2146
1124.586	2107
1129.602	2107
1134.613	2097
1139.618	2074
1144.619	2084
1149.614	2097
1154.604	2090
1159.589	2114
1164.57	2120
1169.545	2137
1174.515	2150
1179.48	2156
1184.44	2122
1189.395	2136
1194.345	2094
1199.29	2061
1204.23	2017
1209.165	2045
1214.095	2111
1219.021	2139
1223.941	2188
1228.856	2220
1233.766	2225
1238.672	2232
1243.572	2187
1248.467	2213
1253.358	2187
1258.244	2145
1263.124	2126
1268	2076
1272.871	2046
1277.737	2058
1282.599	2076
1287.455	2074
1292.306	2085
1297.153	2091
1301.995	2110
1306.832	2146
1311.664	2132
1316.491	2165
1321.314	2123
1326.132	2115
1330.945	2080
1335.753	2065
1340.556	2028
1345.354	2002
1350.148	1985
1354.937	1981
1359.722	1989
1364.501	1999
1369.276	2017
1374.046	2041
1378.811	2053
1383.572	2061
1388.327	2064
1393.079	2030
1397.825	2019
1402.567	1979
1407.304	1964
1412.036	1967
1416.764	1951
1421.487	1952
1426.205	1953
1430.919	1963
1435.628	1993
1440.333	1992
1445.032	2018
1449.727	2029
1454.418	2028
1459.104	2038
1463.785	2008
1468.462	1982
1473.134	1991
1477.802	1981
1482.465	1946
1487.123	1951
1491.777	1964
1496.426	1987
1501.071	1990
1505.711	2014
1510.347	2053
1514.978	2071
1519.604	2075
1524.226	2094
1528.844	2099
1533.457	2076
1538.065	2095
1542.669	2101
1547.269	2089
1551.864	2080
1556.454	2053
1561.041	2090
1565.622	2079
1570.199	2121
1574.772	2131
1579.34	2165
1583.904	2169
1588.464	2189
1593.019	2195
1597.569	2210
1602.115	2196
1606.657	2207
1611.195	2206
1615.728	2209
1620.256	2230
1624.78	2260
1629.3	2256
1633.816	2285
1638.327	2298
1642.834	2333
1647.336	2339
1651.834	2356
1656.328	2346
1660.817	2354
1665.302	2331
1669.783	2290
1674.259	2261
1678.732	2202
1683.199	2146
1687.663	2093
1692.122	2020
1696.577	1977
1701.028	1961
1705.474	1957
1709.917	1949
1714.355	1927
1718.788	1894
1723.218	1873
1727.643	1826
1732.064	1809
1736.481	1797
1740.893	1742
1745.301	1721
1749.705	1684
1754.105	1641
1758.501	1605
1762.893	1557
1767.28	1517
1771.663	1335
1776.042	482
1780.417	-505
1784.787	11
1789.154	1216
1793.516	1505
1797.874	1589
1802.228	1626
1806.578	1617
1810.924	1633
1815.266	1624
1819.603	1604
1823.937	1579
1828.266	1559
1832.591	1542
1836.913	1533
1841.23	1535
1845.543	1535
1849.852	1525
1854.156	1513
1858.457	1532
1862.754	1508
1867.047	1530
1871.335	1542
1875.62	1541
1879.9	1540
1884.177	1547
1888.449	1519
1892.718	1482
1896.982	1250
1901.243	1052
1905.499	1183
1909.752	1426
1914	1493
1918.245	1501
1922.485	1482
1926.722	1531
1930.954	1544
1935.183	1554
1939.408	1568
1943.628	1583
1947.845	1569
1952.058	1583
1956.267	1571
1960.472	1559
1964.673	1560
1968.87	1556
1973.063	1526
1977.252	1493
1981.438	1500
1985.619	1481
1989.797	1499
1993.971	1489
1998.14	1473
2002.306	1506
2006.469	1513
2010.627	1508
2014.781	1500
2018.932	1499
2023.078	1498
2027.221	1485
2031.36	1466
2035.495	1442
2039.627	1450
2043.754	1439
2047.878	1407
2051.998	1395
2056.114	1423
2060.226	1438
2064.334	1460
2068.439	1467
2072.54	1484
2076.637	1464
2080.73	1486
2084.82	1484
2088.906	1473
2092.988	1473
2097.066	1453
2101.14	1451
2105.211	1446
2109.278	1443
2113.342	1443
2117.401	1434
2121.457	1431
2125.509	1415
2129.558	1424
2133.602	1434
2137.643	1408
2141.681	1415
2145.714	1407
2149.744	1405
2153.77	1400
2157.793	1389
2161.812	1389
2165.827	1356
2169.838	1330
2173.846	1326
2177.851	1328
2181.851	1291
2185.848	1282
2189.841	1269
2193.831	1253
2197.817	1265
2201.799	1254
2205.778	1258
2209.753	1252
2213.725	1259
2217.693	1260
2221.657	1248
2225.618	1256
2229.575	1248
2233.529	1267
2237.479	1244
2241.425	1231
2245.368	1218
2249.307	1213
2253.243	1195
2257.175	1183
2261.104	1165
2265.029	1173
2268.95	1143
2272.868	1146
2276.783	1137
2280.694	1108
2284.601	1115
2288.505	1111
2292.405	1098
2296.302	1092
2300.195	1080
2304.085	1063
2307.971	1046
2311.854	1043
2315.734	1027
2319.609	1005
2323.482	1003
2327.351	977
2331.216	982
2335.078	985
2338.937	960
2342.792	967
2346.643	959
2350.492	958
2354.336	952
2358.178	970
2362.015	957
2365.85	947
2369.681	941
2373.508	951
2377.333	935
2381.153	872
2384.971	652
2388.785	606
2392.595	764
2396.402	891
2400.206	915
2404.007	926
2407.804	920
2411.597	911
2415.388	900
2419.174	899
2422.958	907
2426.738	906
2430.515	922
2434.289	913
2438.059	898
2441.825	908
2445.589	906
2449.349	896
2453.106	886
2456.859	876
2460.61	863
2464.356	866
2468.1	853
2471.84	850
2475.577	842
2479.311	842
2483.041	836
2486.768	856
2490.492	871
2494.213	852
2497.93	855
2501.644	863
2505.355	843
2509.062	838
2512.766	842
2516.467	819
2520.165	786
2523.859	772
2527.551	800
2531.239	800
2534.923	797
2538.605	802
2542.283	804
2545.958	807
2549.63	808
2553.299	812
2556.964	806
2560.626	800
2564.285	786
2567.941	780
2571.594	781
2575.243	778
2578.89	783
2582.533	775
2586.173	765
2589.809	765
2593.443	765
2597.073	751
2600.701	744
2604.325	726
2607.946	733
2611.564	732
2615.178	751
2618.79	745
2622.398	749
2626.004	735
2629.606	742
2633.205	725
2636.801	722
2640.394	711
2643.983	703
2647.57	697
2651.153	689
2654.734	679
2658.311	666
2661.885	665
2665.456	648
2669.025	646
2672.589	653
2676.151	653
2679.71	634
2683.266	632
2686.819	625
2690.368	620
2693.915	627
2697.458	611
2700.999	602
2704.536	595
2708.071	576
2711.602	567
2715.13	565
2718.656	570
2722.178	558
2725.697	553
2729.214	560
2732.727	558
2736.237	556
2739.744	549
2743.249	559
2746.75	569
2750.248	579
2753.743	585
2757.236	565
2760.725	572
2764.211	568
2767.695	571
2771.175	568
2774.652	555
2778.127	560
2781.598	545
2785.067	532
2788.532	528
2791.995	504
2795.455	515
2798.911	488
2802.365	502
2805.816	489
2809.264	482
2812.709	490
2816.151	466
2819.59	464
2823.026	451
2826.46	449
2829.89	445
2833.318	431
2836.742	426
2840.164	399
2843.583	386
2846.999	357
2850.412	332
2853.822	307
2857.229	253
2860.634	203
2864.035	126
2867.434	23
2870.83	-186
2874.223	-963
2877.613	-2705
2881	-2953
2884.385	-1349
2887.766	-292
2891.145	-28
2894.521	107
2897.894	184
2901.264	242
2904.631	285
2907.996	335
2911.358	353
2914.717	380
2918.073	402
2921.426	417
2924.777	419
2928.124	436
2931.469	440
2934.811	443
2938.15	442
2941.487	435
2944.821	421
2948.152	423
2951.48	409
2954.805	418
2958.128	440
2961.447	452
2964.765	471
2968.079	484
2971.39	492
2974.699	517
2978.005	514
2981.308	536
2984.609	532
2987.907	539
2991.202	539
2994.494	542
2997.784	519
3001.07	519
3004.355	506
3007.636	522
3010.915	522
3014.191	573
3017.464	592
3020.734	608
3024.002	632
3027.267	641
3030.53	645
3033.789	657
3037.046	689
3040.301	687
3043.552	693
3046.801	698
3050.048	713
3053.291	748
3056.532	738
3059.771	735
3063.006	752
3066.239	748
3069.469	746
3072.697	771
3075.922	790
3079.144	831
3082.364	871
3085.581	881
3088.795	914
3092.007	940
3095.216	970
3098.423	961
3101.627	1003
3104.828	1005
3108.026	1025
3111.222	1048
3114.416	1050
3117.607	1058
3120.795	1077
3123.98	1097
3127.163	1091
3130.344	1118
3133.521	1133
3136.696	1147
3139.869	1192
3143.039	1214
3146.206	1241
3149.371	1270
3152.533	1283
3155.693	1280
3158.85	1299
3162.005	1309
3165.157	1296
3168.306	1286
3171.453	1272
3174.597	1294
3177.739	1271
3180.878	1235
3184.014	1216
3187.149	1212
3190.28	1191
3193.409	1220
3196.536	1233
3199.659	1272
3202.781	1282
3205.9	1281
3209.016	1317
3212.13	1321
3215.241	1310
3218.35	1303
3221.456	1312
3224.56	1288
3227.661	1260
3230.76	1246
3233.856	1241
3236.95	1196
3240.041	1166
3243.13	1151
3246.216	1154
3249.3	1140
3252.382	1151
3255.46	1157
3258.537	1158
3261.611	1177
3264.682	1185
3267.751	1193
3270.818	1202
3273.882	1186
3276.943	1177
3280.002	1169
3283.059	1160
3286.113	1141
3289.165	1116
3292.214	1107
3295.261	1075
3298.306	1041
3301.348	1020
3304.387	996
3307.425	971
3310.459	949
3313.492	945
3316.521	936
3319.549	923
3322.574	936
3325.597	940
3328.617	930
3331.635	922
3334.65	925
3337.663	915
3340.674	915
3343.682	911
3346.688	895
3349.691	866
3352.692	860
3355.691	823
3358.687	790
3361.681	763
3364.673	731
3367.662	716
3370.649	703
3373.633	721
3376.615	760
3379.595	766
3382.572	779
3385.547	784
3388.52	778
3391.49	747
3394.458	757
3397.424	751
3400.387	735
3403.348	735
3406.307	721
3409.263	690
3412.217	671
3415.168	635
3418.118	613
3421.065	594
3424.009	533
3426.951	502
3429.891	493
3432.829	484
3435.764	476
3438.697	469
3441.628	467
3444.557	475
3447.483	464
3450.407	467
3453.328	459
3456.247	425
3459.164	406
3462.079	383
3464.991	336
3467.902	281
3470.809	200
3473.715	96
3476.618	-57
3479.519	-261
3482.418	-481
3485.315	-674
3488.209	-827
3491.101	-880
3493.99	-857
3496.878	-804
3499.763	-771
3502.646	-807
3505.527	-863
3508.405	-927
3511.281	-902
3514.155	-802
3517.027	-731
3519.897	-654
3522.764	-645
3525.629	-645
3528.492	-677
3531.352	-759
3534.211	-898
3537.067	-1091
3539.921	-1247
3542.773	-1385
3545.622	-1448
3548.469	-1396
3551.315	-1255
3554.157	-1086
3556.998	-906
3559.837	-743
3562.673	-613
3565.507	-504
3568.339	-427
3571.169	-386
3573.996	-371
3576.822	-375
3579.645	-511
3582.466	-1158
3585.285	-1765
3588.101	-1731
3590.916	-1151
3593.728	-825
3596.538	-814
3599.346	-892
3602.152	-983
3604.956	-1039
3607.757	-1038
3610.556	-1010
3613.354	-960
3616.149	-883
3618.942	-785
3621.732	-712
3624.521	-654
3627.307	-577
3630.092	-538
3632.874	-505
3635.654	-482
3638.432	-467
3641.208	-474
3643.982	-494
3646.753	-528
3649.523	-586
3652.29	-619
3655.055	-642
3657.818	-662
3660.579	-667
3663.338	-637
3666.095	-599
3668.849	-531
3671.602	-473
3674.352	-407
3677.101	-346
3679.847	-299
3682.591	-264
3685.333	-231
3688.073	-208
3690.811	-187
3693.547	-186
3696.281	-170
3699.013	-169
3701.742	-164
3704.47	-168
3707.195	-163
3709.919	-167
3712.64	-168
3715.359	-165
3718.076	-170
3720.792	-160
3723.505	-161
3726.216	-155
3728.925	-145
3731.632	-146
3734.336	-141
3737.039	-127
3739.74	-131
3742.439	-127
3745.136	-123
3747.83	-120
3750.523	-127
3753.213	-123
3755.902	-115
3758.589	-122
3761.273	-120
3763.956	-125
3766.636	-135
3769.315	-134
3771.991	-145
3774.665	-147
3777.338	-155
3780.008	-160
3782.677	-167
3785.343	-160
3788.007	-164
3790.67	-157
3793.33	-160
3795.989	-153
3798.645	-148
3801.299	-142
3803.952	-141
3806.602	-143
3809.251	-134
3811.897	-143
3814.542	-131
3817.184	-131
3819.825	-134
3822.463	-131
3825.1	-134
3827.735	-130
3830.367	-136
3832.998	-136
3835.627	-129
3838.253	-127
3840.878	-127
3843.501	-135
3846.122	-129
3848.741	-131
3851.358	-133
3853.973	-130
3856.586	-126
3859.197	-128
3861.806	-126
3864.414	-122
3867.019	-127
3869.622	-127
3872.224	-128
3874.823	-128
3877.421	-126
3880.016	-126
3882.61	-130
3885.202	-130
3887.792	-134
3890.38	-135
3892.966	-135
3895.55	-132
3898.132	-134
3900.713	-133
3903.291	-131
3905.868	-132
3908.442	-128
3911.015	-130
3913.586	-130
3916.155	-125
3918.722	-121
3921.287	-121
3923.85	-128
3926.411	-125
3928.971	-127
3931.528	-129
3934.084	-129
3936.638	-131
3939.19	-132
3941.74	-135
3944.288	-133
3946.834	-136
3949.378	-132
3951.921	-139
3954.462	-137
3957	-139
3959.537	-134
3962.072	-130
3964.606	-135
3967.137	-131
3969.667	-126
3972.194	-123
3974.72	-127
3977.244	-127
3979.766	-122
3982.286	-122
3984.805	-123
3987.321	-117
3989.836	-125
3992.349	-123
3994.86	-124
3997.369	-126
3999.877	-122
4002.382	-127
4004.886	-129
4007.388	-121
4009.888	-126
4012.386	-123
4014.883	-121
4017.377	-119
4019.87	-124
4022.361	-123
4024.85	-123
4027.338	-118
4029.823	-119
4032.307	-117
4034.789	-118
4037.269	-120
4039.747	-119
4042.224	-124
4044.699	-130
4047.172	-123
4049.643	-131
4052.112	-127
4054.58	-134
4057.046	-127
4059.51	-132
4061.972	-128
4064.432	-128
4066.891	-126
4069.348	-139
4071.803	-151
4074.256	-232
4076.708	-347
4079.158	-358
4081.606	-260
4084.052	-195
4086.497	-161
4088.939	-149
4091.38	-143
4093.819	-140
4096.257	-127
4098.693	-126
4101.127	-128
4103.559	-121
4105.989	-81
4108.418	-76
4110.845	-73
4113.27	-70
4115.694	-64
4118.115	-49
4120.535	-138
4122.954	-136
4125.37	-137
4127.785	-144
4130.198	-187
4132.609	-237
4135.019	-129
4137.427	-122
4139.833	-126
4142.237	-127
