Data from I0.5_T10s_Bsub_water_0_3_RamanShift_1.txt Node
Date: Mon Mar 13 13:59:07 IST 2017
User: aro
Spectrometer: QEPB0276
Trigger mode: 0
Integration Time (sec): 1.000000E1
Scans to average: 1
Electric dark correction enabled: true
Nonlinearity correction enabled: false
Boxcar width: 0
XAxis mode: Raman Shifts
Number of Pixels in Spectrum: 1044
>>>>>Begin Spectral Data<<<<<
160.701	-16
166.742	2
172.777	69
178.805	287
184.826	814
190.841	1766
196.849	2804
202.85	3521
208.845	3697
214.833	3600
220.815	3496
226.789	3411
232.758	3390
238.719	3316
244.674	3236
250.623	3128
256.565	3019
262.5	2931
268.429	2850
274.351	2781
280.267	2714
286.176	2645
292.079	2585
297.975	2506
303.865	2455
309.748	2402
315.625	2353
321.495	2300
327.359	2254
333.217	2231
339.068	2207
344.912	2200
350.751	2173
356.583	2166
362.408	2142
368.227	2147
374.04	2124
379.847	2133
385.647	2111
391.44	2127
397.228	2141
403.009	2148
408.784	2158
414.553	2153
420.315	2155
426.071	2142
431.821	2147
437.565	2134
443.302	2127
449.033	2133
454.758	2117
460.477	2114
466.189	2092
471.896	2078
477.596	2085
483.29	2081
488.978	2066
494.66	2048
500.335	2041
506.005	2015
511.668	1989
517.325	1960
522.977	1926
528.622	1926
534.261	1907
539.894	1896
545.521	1886
551.141	1872
556.756	1881
562.365	1852
567.968	1866
573.565	1855
579.155	1858
584.74	1830
590.319	1818
595.892	1831
601.459	1820
607.02	1805
612.575	1787
618.124	1776
623.667	1756
629.204	1763
634.735	1749
640.261	1755
645.781	1737
651.294	1724
656.802	1717
662.304	1725
667.8	1717
673.29	1731
678.775	1706
684.254	1695
689.726	1697
695.193	1693
700.655	1695
706.11	1680
711.56	1685
717.004	1679
722.442	1671
727.874	1682
733.301	1660
738.722	1658
744.137	1654
749.547	1641
754.951	1653
760.349	1661
765.741	1640
771.128	1669
776.509	1656
781.885	1662
787.254	1656
792.618	1636
797.977	1653
803.33	1643
808.677	1631
814.019	1624
819.355	1604
824.686	1616
830.011	1600
835.33	1596
840.644	1604
845.952	1591
851.255	1603
856.552	1603
861.844	1619
867.13	1594
872.41	1592
877.686	1594
882.955	1580
888.219	1577
893.478	1538
898.731	1532
903.979	1509
909.221	1499
914.458	1501
919.69	1490
924.916	1506
930.136	1506
935.351	1515
940.561	1525
945.766	1513
950.965	1522
956.158	1492
961.347	1494
966.529	1471
971.707	1461
976.879	1444
982.046	1444
987.208	1424
992.364	1427
997.515	1449
1002.66	1457
1007.801	1454
1012.936	1470
1018.066	1498
1023.19	1510
1028.309	1514
1033.423	1511
1038.532	1503
1043.636	1484
1048.734	1499
1053.827	1470
1058.915	1469
1063.998	1455
1069.075	1468
1074.147	1465
1079.214	1472
1084.276	1479
1089.333	1485
1094.385	1504
1099.431	1504
1104.472	1523
1109.509	1502
1114.54	1484
1119.565	1479
1124.586	1474
1129.602	1461
1134.613	1431
1139.618	1469
1144.619	1442
1149.614	1459
1154.604	1453
1159.589	1479
1164.57	1475
1169.545	1470
1174.515	1493
1179.48	1484
1184.44	1470
1189.395	1472
1194.345	1449
1199.29	1454
1204.23	1444
1209.165	1469
1214.095	1484
1219.021	1491
1223.941	1494
1228.856	1518
1233.766	1527
1238.672	1523
1243.572	1523
1248.467	1487
1253.358	1497
1258.244	1466
1263.124	1455
1268	1437
1272.871	1426
1277.737	1415
1282.599	1427
1287.455	1418
1292.306	1435
1297.153	1438
1301.995	1457
1306.832	1459
1311.664	1476
1316.491	1463
1321.314	1468
1326.132	1448
1330.945	1443
1335.753	1404
1340.556	1405
1345.354	1364
1350.148	1377
1354.937	1379
1359.722	1379
1364.501	1388
1369.276	1398
1374.046	1411
1378.811	1417
1383.572	1426
1388.327	1407
1393.079	1401
1397.825	1380
1402.567	1367
1407.304	1360
1412.036	1350
1416.764	1344
1421.487	1349
1426.205	1351
1430.919	1343
1435.628	1363
1440.333	1376
1445.032	1400
1449.727	1400
1454.418	1410
1459.104	1405
1463.785	1401
1468.462	1397
1473.134	1387
1477.802	1361
1482.465	1356
1487.123	1359
1491.777	1375
1496.426	1365
1501.071	1381
1505.711	1378
1510.347	1417
1514.978	1430
1519.604	1434
1524.226	1440
1528.844	1448
1533.457	1441
1538.065	1437
1542.669	1433
1547.269	1413
1551.864	1428
1556.454	1431
1561.041	1421
1565.622	1424
1570.199	1451
1574.772	1456
1579.34	1470
1583.904	1490
1588.464	1505
1593.019	1510
1597.569	1504
1602.115	1501
1606.657	1521
1611.195	1505
1615.728	1517
1620.256	1533
1624.78	1509
1629.3	1538
1633.816	1560
1638.327	1549
1642.834	1558
1647.336	1596
1651.834	1609
1656.328	1614
1660.817	1612
1665.302	1589
1669.783	1566
1674.259	1553
1678.732	1520
1683.199	1462
1687.663	1443
1692.122	1403
1696.577	1372
1701.028	1353
1705.474	1350
1709.917	1322
1714.355	1313
1718.788	1302
1723.218	1285
1727.643	1257
1732.064	1231
1736.481	1227
1740.893	1216
1745.301	1184
1749.705	1168
1754.105	1134
1758.501	1127
1762.893	1118
1767.28	1102
1771.663	1098
1776.042	1091
1780.417	1115
1784.787	1104
1789.154	1130
1793.516	1126
1797.874	1134
1802.228	1136
1806.578	1155
1810.924	1127
1815.266	1127
1819.603	1112
1823.937	1092
1828.266	1085
1832.591	1072
1836.913	1067
1841.23	1071
1845.543	1045
1849.852	1066
1854.156	1058
1858.457	1060
1862.754	1057
1867.047	1072
1871.335	1064
1875.62	1093
1879.9	1084
1884.177	1080
1888.449	1069
1892.718	1066
1896.982	1070
1901.243	1068
1905.499	1055
1909.752	1056
1914	1053
1918.245	1058
1922.485	1070
1926.722	1062
1930.954	1071
1935.183	1078
1939.408	1083
1943.628	1091
1947.845	1086
1952.058	1095
1956.267	1079
1960.472	1093
1964.673	1071
1968.87	1058
1973.063	1047
1977.252	1039
1981.438	1030
1985.619	1025
1989.797	1017
1993.971	1021
1998.14	1037
2002.306	1014
2006.469	1024
2010.627	1025
2014.781	1032
2018.932	1028
2023.078	1029
2027.221	1012
2031.36	1018
2035.495	996
2039.627	993
2043.754	985
2047.878	992
2051.998	984
2056.114	972
2060.226	982
2064.334	994
2068.439	993
2072.54	1002
2076.637	1009
2080.73	1000
2084.82	1012
2088.906	1005
2092.988	996
2097.066	1013
2101.14	998
2105.211	993
2109.278	976
2113.342	986
2117.401	975
2121.457	972
2125.509	971
2129.558	967
2133.602	972
2137.643	959
2141.681	958
2145.714	955
2149.744	952
2153.77	963
2157.793	953
2161.812	934
2165.827	927
2169.838	911
2173.846	898
2177.851	896
2181.851	888
2185.848	866
2189.841	853
2193.831	863
2197.817	864
2201.799	842
2205.778	851
2209.753	861
2213.725	854
2217.693	870
2221.657	849
2225.618	855
2229.575	853
2233.529	858
2237.479	845
2241.425	838
2245.368	834
2249.307	819
2253.243	810
2257.175	809
2261.104	791
2265.029	787
2268.95	792
2272.868	781
2276.783	771
2280.694	781
2284.601	764
2288.505	753
2292.405	748
2296.302	754
2300.195	734
2304.085	720
2307.971	713
2311.854	705
2315.734	694
2319.609	694
2323.482	679
2327.351	670
2331.216	675
2335.078	672
2338.937	650
2342.792	657
2346.643	660
2350.492	658
2354.336	657
2358.178	656
2362.015	665
2365.85	659
2369.681	656
2373.508	673
2377.333	659
2381.153	654
2384.971	675
2388.785	653
2392.595	653
2396.402	652
2400.206	641
2404.007	658
2407.804	635
2411.597	642
2415.388	640
2419.174	635
2422.958	629
2426.738	633
2430.515	630
2434.289	632
2438.059	624
2441.825	617
2445.589	618
2449.349	617
2453.106	600
2456.859	614
2460.61	603
2464.356	607
2468.1	596
2471.84	602
2475.577	599
2479.311	590
2483.041	600
2486.768	602
2490.492	592
2494.213	590
2497.93	589
2501.644	590
2505.355	594
2509.062	600
2512.766	582
2516.467	592
2520.165	576
2523.859	586
2527.551	572
2531.239	571
2534.923	569
2538.605	565
2542.283	563
2545.958	548
2549.63	560
2553.299	562
2556.964	562
2560.626	561
2564.285	560
2567.941	548
2571.594	537
2575.243	545
2578.89	541
2582.533	536
2586.173	537
2589.809	531
2593.443	537
2597.073	525
2600.701	521
2604.325	515
2607.946	528
2611.564	517
2615.178	519
2618.79	510
2622.398	498
2626.004	504
2629.606	504
2633.205	503
2636.801	495
2640.394	486
2643.983	478
2647.57	491
2651.153	480
2654.734	476
2658.311	467
2661.885	464
2665.456	455
2669.025	473
2672.589	459
2676.151	455
2679.71	443
2683.266	452
2686.819	441
2690.368	432
2693.915	434
2697.458	421
2700.999	414
2704.536	407
2708.071	410
2711.602	405
2715.13	405
2718.656	396
2722.178	398
2725.697	398
2729.214	398
2732.727	396
2736.237	399
2739.744	404
2743.249	405
2746.75	411
2750.248	408
2753.743	397
2757.236	400
2760.725	401
2764.211	399
2767.695	403
2771.175	404
2774.652	400
2778.127	395
2781.598	392
2785.067	379
2788.532	384
2791.995	383
2795.455	381
2798.911	379
2802.365	379
2805.816	378
2809.264	376
2812.709	366
2816.151	366
2819.59	374
2823.026	369
2826.46	366
2829.89	365
2833.318	361
2836.742	376
2840.164	360
2843.583	364
2846.999	359
2850.412	371
2853.822	367
2857.229	371
2860.634	370
2864.035	369
2867.434	370
2870.83	377
2874.223	377
2877.613	358
2881	368
2884.385	362
2887.766	369
2891.145	370
2894.521	362
2897.894	365
2901.264	354
2904.631	359
2907.996	355
2911.358	357
2914.717	356
2918.073	358
2921.426	361
2924.777	362
2928.124	363
2931.469	375
2934.811	373
2938.15	366
2941.487	372
2944.821	373
2948.152	379
2951.48	382
2954.805	380
2958.128	379
2961.447	382
2964.765	383
2968.079	394
2971.39	379
2974.699	390
2978.005	383
2981.308	403
2984.609	407
2987.907	412
2991.202	411
2994.494	420
2997.784	426
3001.07	435
3004.355	457
3007.636	445
3010.915	459
3014.191	458
3017.464	465
3020.734	475
3024.002	467
3027.267	471
3030.53	467
3033.789	481
3037.046	485
3040.301	491
3043.552	500
3046.801	493
3050.048	507
3053.291	523
3056.532	524
3059.771	542
3063.006	553
3066.239	565
3069.469	579
3072.697	577
3075.922	599
3079.144	617
3082.364	621
3085.581	631
3088.795	633
3092.007	651
3095.216	669
3098.423	667
3101.627	689
3104.828	702
3108.026	712
3111.222	717
3114.416	736
3117.607	747
3120.795	753
3123.98	764
3127.163	788
3130.344	812
3133.521	814
3136.696	828
3139.869	850
3143.039	859
3146.206	856
3149.371	882
3152.533	881
3155.693	885
3158.85	870
3162.005	901
3165.157	890
3168.306	890
3171.453	892
3174.597	891
3177.739	899
3180.878	897
3184.014	904
3187.149	909
3190.28	902
3193.409	891
3196.536	911
3199.659	908
3202.781	905
3205.9	906
3209.016	924
3212.13	906
3215.241	917
3218.35	899
3221.456	901
3224.56	888
3227.661	880
3230.76	870
3233.856	867
3236.95	852
3240.041	844
3243.13	824
3246.216	844
3249.3	833
3252.382	822
3255.46	822
3258.537	827
3261.611	814
3264.682	817
3267.751	819
3270.818	807
3273.882	802
3276.943	814
3280.002	789
3283.059	782
3286.113	788
3289.165	764
3292.214	748
3295.261	742
3298.306	723
3301.348	725
3304.387	708
3307.425	693
3310.459	681
3313.492	685
3316.521	677
3319.549	665
3322.574	661
3325.597	657
3328.617	646
3331.635	640
3334.65	637
3337.663	629
3340.674	626
3343.682	633
3346.688	621
3349.691	626
3352.692	617
3355.691	605
3358.687	596
3361.681	603
3364.673	595
3367.662	575
3370.649	582
3373.633	570
3376.615	549
3379.595	553
3382.572	548
3385.547	536
3388.52	535
3391.49	526
3394.458	518
3397.424	511
3400.387	514
3403.348	493
3406.307	497
3409.263	494
3412.217	496
3415.168	493
3418.118	488
3421.065	472
3424.009	459
3426.951	465
3429.891	448
3432.829	431
3435.764	433
3438.697	424
3441.628	408
3444.557	399
3447.483	402
3450.407	389
3453.328	371
3456.247	361
3459.164	350
3462.079	343
3464.991	327
3467.902	328
3470.809	311
3473.715	302
3476.618	295
3479.519	298
3482.418	274
3485.315	273
3488.209	265
3491.101	254
3493.99	248
3496.878	241
3499.763	239
3502.646	224
3505.527	214
3508.405	220
3511.281	211
3514.155	195
3517.027	186
3519.897	178
3522.764	168
3525.629	163
3528.492	162
3531.352	150
3534.211	143
3537.067	127
3539.921	119
3542.773	119
3545.622	104
3548.469	107
3551.315	95
3554.157	88
3556.998	85
3559.837	82
3562.673	78
3565.507	69
3568.339	64
3571.169	66
3573.996	53
3576.822	56
3579.645	43
3582.466	50
3585.285	41
3588.101	33
3590.916	30
3593.728	35
3596.538	24
3599.346	21
3602.152	20
3604.956	13
3607.757	13
3610.556	6
3613.354	8
3616.149	-2
3618.942	-5
3621.732	-4
3624.521	-7
3627.307	-7
3630.092	-9
3632.874	-11
3635.654	-15
3638.432	-15
3641.208	-15
3643.982	-16
3646.753	-23
3649.523	-21
3652.29	-27
3655.055	-26
3657.818	-29
3660.579	-32
3663.338	-31
3666.095	-32
3668.849	-37
3671.602	-36
3674.352	-37
3677.101	-41
3679.847	-46
3682.591	-47
3685.333	-47
3688.073	-51
3690.811	-51
3693.547	-53
3696.281	-57
3699.013	-58
3701.742	-57
3704.47	-55
3707.195	-55
3709.919	-56
3712.64	-60
3715.359	-57
3718.076	-56
3720.792	-52
3723.505	-62
3726.216	-60
3728.925	-62
3731.632	-63
3734.336	-57
3737.039	-63
3739.74	-59
3742.439	-61
3745.136	-67
3747.83	-62
3750.523	-64
3753.213	-64
3755.902	-69
3758.589	-72
3761.273	-70
3763.956	-68
3766.636	-68
3769.315	-72
3771.991	-72
3774.665	-67
3777.338	-74
3780.008	-69
3782.677	-73
3785.343	-69
3788.007	-66
3790.67	-70
3793.33	-69
3795.989	-73
3798.645	-67
3801.299	-73
3803.952	-72
3806.602	-72
3809.251	-73
3811.897	-69
3814.542	-72
3817.184	-75
3819.825	-76
3822.463	-76
3825.1	-75
3827.735	-77
3830.367	-79
3832.998	-74
3835.627	-79
3838.253	-75
3840.878	-80
3843.501	-77
3846.122	-78
3848.741	-80
3851.358	-76
3853.973	-79
3856.586	-81
3859.197	-74
3861.806	-75
3864.414	-71
3867.019	-77
3869.622	-75
3872.224	-76
3874.823	-77
3877.421	-76
3880.016	-73
3882.61	-67
3885.202	-73
3887.792	-76
3890.38	-78
3892.966	-75
3895.55	-82
3898.132	-81
3900.713	-86
3903.291	-84
3905.868	-84
3908.442	-85
3911.015	-81
3913.586	-85
3916.155	-77
3918.722	-80
3921.287	-77
3923.85	-77
3926.411	-80
3928.971	-81
3931.528	-77
3934.084	-79
3936.638	-77
3939.19	-82
3941.74	-78
3944.288	-81
3946.834	-81
3949.378	-85
3951.921	-86
3954.462	-86
3957	-85
3959.537	-80
3962.072	-79
3964.606	-84
3967.137	-81
3969.667	-83
3972.194	-88
3974.72	-84
3977.244	-82
3979.766	-81
3982.286	-84
3984.805	-78
3987.321	-82
3989.836	-78
3992.349	-77
3994.86	-80
3997.369	-82
3999.877	-79
4002.382	-79
4004.886	-77
4007.388	-82
4009.888	-78
4012.386	-78
4014.883	-82
4017.377	-86
4019.87	-82
4022.361	-84
4024.85	-84
4027.338	-88
4029.823	-82
4032.307	-86
4034.789	-82
4037.269	-85
4039.747	-83
4042.224	-85
4044.699	-80
4047.172	-81
4049.643	-83
4052.112	-82
4054.58	-78
4057.046	-76
4059.51	-76
4061.972	-81
4064.432	-82
4066.891	-84
4069.348	-82
4071.803	-81
4074.256	-83
4076.708	-82
4079.158	-78
4081.606	-82
4084.052	-85
4086.497	-80
4088.939	-85
4091.38	-88
4093.819	-85
4096.257	-89
4098.693	-91
4101.127	-89
4103.559	-87
4105.989	-55
4108.418	-50
4110.845	-53
4113.27	-45
4115.694	-41
4118.115	-29
4120.535	-84
4122.954	-90
4125.37	-88
4127.785	-85
4130.198	-84
4132.609	-85
4135.019	-87
4137.427	-86
4139.833	-86
4142.237	-83
