Data from I0.75_T5s_Bsub_water_0_2_RamanShift_1.txt Node
Date: Mon Mar 13 15:06:12 IST 2017
User: aro
Spectrometer: QEPB0276
Trigger mode: 0
Integration Time (sec): 5.000000E0
Scans to average: 1
Electric dark correction enabled: true
Nonlinearity correction enabled: false
Boxcar width: 0
XAxis mode: Raman Shifts
Number of Pixels in Spectrum: 1044
>>>>>Begin Spectral Data<<<<<
160.701	-27
166.742	2
172.777	85
178.805	345
184.826	1000
190.841	2132
196.849	3442
202.85	4319
208.845	4516
214.833	4414
220.815	4267
226.789	4220
232.758	4173
238.719	4105
244.674	3980
250.623	3892
256.565	3756
262.5	3626
268.429	3513
274.351	3420
280.267	3350
286.176	3275
292.079	3199
297.975	3103
303.865	3047
309.748	2971
315.625	2897
321.495	2866
327.359	2804
333.217	2779
339.068	2738
344.912	2720
350.751	2690
356.583	2664
362.408	2653
368.227	2642
374.04	2640
379.847	2654
385.647	2636
391.44	2627
397.228	2632
403.009	2650
408.784	2640
414.553	2646
420.315	2650
426.071	2675
431.821	2632
437.565	2640
443.302	2637
449.033	2623
454.758	2612
460.477	2585
466.189	2578
471.896	2579
477.596	2552
483.29	2546
488.978	2539
494.66	2539
500.335	2512
506.005	2496
511.668	2443
517.325	2419
522.977	2408
528.622	2373
534.261	2373
539.894	2351
545.521	2332
551.141	2327
556.756	2317
562.365	2319
567.968	2306
573.565	2302
579.155	2286
584.74	2288
590.319	2268
595.892	2283
601.459	2227
607.02	2241
612.575	2216
618.124	2207
623.667	2189
629.204	2194
634.735	2176
640.261	2165
645.781	2148
651.294	2141
656.802	2168
662.304	2166
667.8	2140
673.29	2144
678.775	2140
684.254	2146
689.726	2128
695.193	2115
700.655	2116
706.11	2095
711.56	2091
717.004	2091
722.442	2084
727.874	2056
733.301	2084
738.722	2061
744.137	2044
749.547	2068
754.951	2067
760.349	2066
765.741	2063
771.128	2077
776.509	2065
781.885	2083
787.254	2082
792.618	2068
797.977	2078
803.33	2057
808.677	2054
814.019	2022
819.355	2019
824.686	2020
830.011	1997
835.33	2017
840.644	1990
845.952	2002
851.255	2024
856.552	1992
861.844	2008
867.13	2013
872.41	2005
877.686	1997
882.955	1983
888.219	1965
893.478	1945
898.731	1915
903.979	1916
909.221	1899
914.458	1892
919.69	1895
924.916	1906
930.136	1916
935.351	1901
940.561	1923
945.766	1920
950.965	1919
956.158	1909
961.347	1899
966.529	1871
971.707	1828
976.879	1826
982.046	1824
987.208	1817
992.364	1809
997.515	1831
1002.66	1850
1007.801	1855
1012.936	1885
1018.066	1892
1023.19	1910
1028.309	1919
1033.423	1919
1038.532	1898
1043.636	1896
1048.734	1888
1053.827	1888
1058.915	1848
1063.998	1845
1069.075	1843
1074.147	1834
1079.214	1859
1084.276	1871
1089.333	1900
1094.385	1910
1099.431	1923
1104.472	1906
1109.509	1929
1114.54	1911
1119.565	1873
1124.586	1863
1129.602	1839
1134.613	1854
1139.618	1820
1144.619	1835
1149.614	1850
1154.604	1857
1159.589	1875
1164.57	1888
1169.545	1878
1174.515	1890
1179.48	1880
1184.44	1874
1189.395	1870
1194.345	1869
1199.29	1841
1204.23	1859
1209.165	1858
1214.095	1900
1219.021	1886
1223.941	1912
1228.856	1932
1233.766	1928
1238.672	1936
1243.572	1933
1248.467	1934
1253.358	1901
1258.244	1883
1263.124	1858
1268	1851
1272.871	1833
1277.737	1829
1282.599	1804
1287.455	1818
1292.306	1826
1297.153	1838
1301.995	1858
1306.832	1874
1311.664	1879
1316.491	1898
1321.314	1886
1326.132	1865
1330.945	1819
1335.753	1825
1340.556	1782
1345.354	1778
1350.148	1750
1354.937	1764
1359.722	1747
1364.501	1765
1369.276	1794
1374.046	1790
1378.811	1812
1383.572	1811
1388.327	1818
1393.079	1787
1397.825	1761
1402.567	1744
1407.304	1738
1412.036	1727
1416.764	1701
1421.487	1722
1426.205	1714
1430.919	1727
1435.628	1758
1440.333	1769
1445.032	1762
1449.727	1780
1454.418	1791
1459.104	1795
1463.785	1790
1468.462	1767
1473.134	1756
1477.802	1746
1482.465	1740
1487.123	1724
1491.777	1725
1496.426	1764
1501.071	1767
1505.711	1777
1510.347	1800
1514.978	1835
1519.604	1828
1524.226	1848
1528.844	1868
1533.457	1845
1538.065	1845
1542.669	1846
1547.269	1840
1551.864	1818
1556.454	1833
1561.041	1831
1565.622	1855
1570.199	1839
1574.772	1870
1579.34	1869
1583.904	1903
1588.464	1904
1593.019	1917
1597.569	1930
1602.115	1909
1606.657	1920
1611.195	1895
1615.728	1913
1620.256	1939
1624.78	1941
1629.3	1944
1633.816	1955
1638.327	1979
1642.834	2005
1647.336	2027
1651.834	2041
1656.328	2042
1660.817	2053
1665.302	2037
1669.783	2010
1674.259	1965
1678.732	1929
1683.199	1886
1687.663	1835
1692.122	1793
1696.577	1752
1701.028	1728
1705.474	1731
1709.917	1715
1714.355	1703
1718.788	1679
1723.218	1652
1727.643	1627
1732.064	1601
1736.481	1572
1740.893	1541
1745.301	1525
1749.705	1510
1754.105	1482
1758.501	1453
1762.893	1431
1767.28	1429
1771.663	1429
1776.042	1428
1780.417	1422
1784.787	1435
1789.154	1452
1793.516	1471
1797.874	1482
1802.228	1486
1806.578	1480
1810.924	1466
1815.266	1473
1819.603	1436
1823.937	1422
1828.266	1391
1832.591	1382
1836.913	1375
1841.23	1371
1845.543	1373
1849.852	1362
1854.156	1371
1858.457	1375
1862.754	1378
1867.047	1389
1871.335	1393
1875.62	1394
1879.9	1402
1884.177	1402
1888.449	1388
1892.718	1384
1896.982	1384
1901.243	1369
1905.499	1383
1909.752	1377
1914	1392
1918.245	1378
1922.485	1382
1926.722	1383
1930.954	1398
1935.183	1403
1939.408	1405
1943.628	1419
1947.845	1422
1952.058	1417
1956.267	1395
1960.472	1388
1964.673	1385
1968.87	1359
1973.063	1364
1977.252	1350
1981.438	1353
1985.619	1353
1989.797	1343
1993.971	1339
1998.14	1327
2002.306	1350
2006.469	1343
2010.627	1340
2014.781	1340
2018.932	1327
2023.078	1332
2027.221	1332
2031.36	1313
2035.495	1302
2039.627	1293
2043.754	1288
2047.878	1265
2051.998	1265
2056.114	1273
2060.226	1286
2064.334	1292
2068.439	1279
2072.54	1292
2076.637	1289
2080.73	1308
2084.82	1303
2088.906	1302
2092.988	1329
2097.066	1314
2101.14	1301
2105.211	1309
2109.278	1297
2113.342	1275
2117.401	1276
2121.457	1277
2125.509	1267
2129.558	1263
2133.602	1279
2137.643	1267
2141.681	1276
2145.714	1250
2149.744	1250
2153.77	1231
2157.793	1227
2161.812	1230
2165.827	1203
2169.838	1192
2173.846	1190
2177.851	1168
2181.851	1144
2185.848	1147
2189.841	1135
2193.831	1134
2197.817	1128
2201.799	1117
2205.778	1133
2209.753	1115
2213.725	1132
2217.693	1114
2221.657	1117
2225.618	1134
2229.575	1118
2233.529	1125
2237.479	1116
2241.425	1108
2245.368	1081
2249.307	1079
2253.243	1060
2257.175	1054
2261.104	1038
2265.029	1047
2268.95	1032
2272.868	1018
2276.783	1009
2280.694	1014
2284.601	1005
2288.505	984
2292.405	973
2296.302	988
2300.195	967
2304.085	965
2307.971	957
2311.854	941
2315.734	930
2319.609	910
2323.482	891
2327.351	894
2331.216	882
2335.078	888
2338.937	884
2342.792	869
2346.643	860
2350.492	877
2354.336	871
2358.178	876
2362.015	866
2365.85	876
2369.681	874
2373.508	879
2377.333	888
2381.153	876
2384.971	864
2388.785	874
2392.595	869
2396.402	869
2400.206	856
2404.007	855
2407.804	855
2411.597	854
2415.388	844
2419.174	857
2422.958	842
2426.738	845
2430.515	836
2434.289	832
2438.059	840
2441.825	817
2445.589	827
2449.349	813
2453.106	796
2456.859	799
2460.61	805
2464.356	807
2468.1	793
2471.84	804
2475.577	787
2479.311	780
2483.041	786
2486.768	794
2490.492	797
2494.213	785
2497.93	793
2501.644	785
2505.355	787
2509.062	788
2512.766	789
2516.467	778
2520.165	772
2523.859	774
2527.551	763
2531.239	751
2534.923	756
2538.605	751
2542.283	746
2545.958	756
2549.63	750
2553.299	748
2556.964	732
2560.626	722
2564.285	731
2567.941	730
2571.594	727
2575.243	717
2578.89	722
2582.533	723
2586.173	719
2589.809	708
2593.443	699
2597.073	706
2600.701	704
2604.325	703
2607.946	695
2611.564	697
2615.178	696
2618.79	685
2622.398	679
2626.004	671
2629.606	682
2633.205	683
2636.801	657
2640.394	648
2643.983	647
2647.57	647
2651.153	637
2654.734	632
2658.311	626
2661.885	627
2665.456	615
2669.025	610
2672.589	611
2676.151	608
2679.71	602
2683.266	608
2686.819	590
2690.368	574
2693.915	578
2697.458	566
2700.999	558
2704.536	552
2708.071	548
2711.602	542
2715.13	546
2718.656	539
2722.178	535
2725.697	530
2729.214	527
2732.727	536
2736.237	535
2739.744	550
2743.249	535
2746.75	531
2750.248	538
2753.743	530
2757.236	547
2760.725	535
2764.211	532
2767.695	531
2771.175	536
2774.652	525
2778.127	515
2781.598	511
2785.067	514
2788.532	513
2791.995	501
2795.455	515
2798.911	508
2802.365	513
2805.816	495
2809.264	509
2812.709	487
2816.151	496
2819.59	493
2823.026	495
2826.46	494
2829.89	473
2833.318	487
2836.742	483
2840.164	481
2843.583	482
2846.999	479
2850.412	482
2853.822	476
2857.229	487
2860.634	481
2864.035	488
2867.434	489
2870.83	491
2874.223	494
2877.613	492
2881	481
2884.385	488
2887.766	478
2891.145	474
2894.521	476
2897.894	482
2901.264	466
2904.631	473
2907.996	468
2911.358	476
2914.717	473
2918.073	470
2921.426	472
2924.777	480
2928.124	467
2931.469	479
2934.811	479
2938.15	479
2941.487	485
2944.821	486
2948.152	484
2951.48	489
2954.805	488
2958.128	491
2961.447	489
2964.765	493
2968.079	492
2971.39	504
2974.699	509
2978.005	524
2981.308	522
2984.609	528
2987.907	532
2991.202	534
2994.494	536
2997.784	551
3001.07	574
3004.355	567
3007.636	577
3010.915	580
3014.191	593
3017.464	589
3020.734	595
3024.002	586
3027.267	590
3030.53	595
3033.789	603
3037.046	605
3040.301	620
3043.552	622
3046.801	628
3050.048	638
3053.291	655
3056.532	671
3059.771	679
3063.006	693
3066.239	715
3069.469	721
3072.697	733
3075.922	748
3079.144	766
3082.364	784
3085.581	795
3088.795	791
3092.007	808
3095.216	830
3098.423	832
3101.627	849
3104.828	872
3108.026	878
3111.222	892
3114.416	901
3117.607	916
3120.795	929
3123.98	958
3127.163	959
3130.344	979
3133.521	1012
3136.696	1024
3139.869	1052
3143.039	1062
3146.206	1064
3149.371	1080
3152.533	1073
3155.693	1083
3158.85	1095
3162.005	1085
3165.157	1096
3168.306	1082
3171.453	1100
3174.597	1098
3177.739	1090
3180.878	1110
3184.014	1114
3187.149	1105
3190.28	1113
3193.409	1117
3196.536	1121
3199.659	1114
3202.781	1108
3205.9	1116
3209.016	1121
3212.13	1108
3215.241	1112
3218.35	1099
3221.456	1091
3224.56	1091
3227.661	1087
3230.76	1061
3233.856	1069
3236.95	1057
3240.041	1034
3243.13	1022
3246.216	1029
3249.3	1011
3252.382	1017
3255.46	1021
3258.537	996
3261.611	997
3264.682	1008
3267.751	999
3270.818	996
3273.882	981
3276.943	978
3280.002	970
3283.059	958
3286.113	954
3289.165	936
3292.214	919
3295.261	924
3298.306	909
3301.348	883
3304.387	865
3307.425	840
3310.459	832
3313.492	834
3316.521	829
3319.549	824
3322.574	801
3325.597	788
3328.617	792
3331.635	798
3334.65	792
3337.663	772
3340.674	774
3343.682	764
3346.688	765
3349.691	773
3352.692	754
3355.691	750
3358.687	753
3361.681	754
3364.673	728
3367.662	717
3370.649	712
3373.633	697
3376.615	680
3379.595	668
3382.572	673
3385.547	656
3388.52	655
3391.49	643
3394.458	631
3397.424	625
3400.387	618
3403.348	616
3406.307	611
3409.263	597
3412.217	592
3415.168	591
3418.118	579
3421.065	580
3424.009	578
3426.951	576
3429.891	557
3432.829	546
3435.764	536
3438.697	525
3441.628	512
3444.557	502
3447.483	476
3450.407	474
3453.328	445
3456.247	437
3459.164	430
3462.079	429
3464.991	406
3467.902	397
3470.809	381
3473.715	379
3476.618	369
3479.519	354
3482.418	346
3485.315	341
3488.209	336
3491.101	331
3493.99	318
3496.878	302
3499.763	290
3502.646	284
3505.527	276
3508.405	265
3511.281	256
3514.155	245
3517.027	230
3519.897	225
3522.764	213
3525.629	204
3528.492	190
3531.352	183
3534.211	172
3537.067	166
3539.921	156
3542.773	149
3545.622	142
3548.469	125
3551.315	120
3554.157	119
3556.998	116
3559.837	109
3562.673	98
3565.507	96
3568.339	92
3571.169	83
3573.996	81
3576.822	78
3579.645	67
3582.466	61
3585.285	58
3588.101	44
3590.916	47
3593.728	40
3596.538	36
3599.346	23
3602.152	27
3604.956	19
3607.757	16
3610.556	17
3613.354	13
3616.149	4
3618.942	6
3621.732	0
3624.521	-1
3627.307	-4
3630.092	-4
3632.874	-6
3635.654	-8
3638.432	-14
3641.208	-10
3643.982	-17
3646.753	-18
3649.523	-23
3652.29	-25
3655.055	-28
3657.818	-32
3660.579	-33
3663.338	-40
3666.095	-40
3668.849	-47
3671.602	-46
3674.352	-45
3677.101	-47
3679.847	-52
3682.591	-51
3685.333	-52
3688.073	-56
3690.811	-54
3693.547	-50
3696.281	-59
3699.013	-54
3701.742	-60
3704.47	-61
3707.195	-60
3709.919	-63
3712.64	-65
3715.359	-62
3718.076	-66
3720.792	-68
3723.505	-71
3726.216	-70
3728.925	-73
3731.632	-75
3734.336	-75
3737.039	-75
3739.74	-78
3742.439	-75
3745.136	-74
3747.83	-74
3750.523	-75
3753.213	-76
3755.902	-72
3758.589	-78
3761.273	-74
3763.956	-77
3766.636	-75
3769.315	-79
3771.991	-77
3774.665	-79
3777.338	-80
3780.008	-76
3782.677	-82
3785.343	-81
3788.007	-80
3790.67	-83
3793.33	-87
3795.989	-82
3798.645	-88
3801.299	-90
3803.952	-89
3806.602	-88
3809.251	-86
3811.897	-90
3814.542	-87
3817.184	-91
3819.825	-85
3822.463	-87
3825.1	-83
3827.735	-88
3830.367	-87
3832.998	-86
3835.627	-84
3838.253	-87
3840.878	-88
3843.501	-86
3846.122	-84
3848.741	-89
3851.358	-90
3853.973	-88
3856.586	-89
3859.197	-89
3861.806	-93
3864.414	-94
3867.019	-92
3869.622	-94
3872.224	-92
3874.823	-89
3877.421	-87
3880.016	-88
3882.61	-86
3885.202	-85
3887.792	-87
3890.38	-87
3892.966	-91
3895.55	-93
3898.132	-91
3900.713	-92
3903.291	-101
3905.868	-97
3908.442	-97
3911.015	-99
3913.586	-95
3916.155	-93
3918.722	-98
3921.287	-95
3923.85	-96
3926.411	-94
3928.971	-95
3931.528	-99
3934.084	-97
3936.638	-97
3939.19	-94
3941.74	-95
3944.288	-99
3946.834	-98
3949.378	-98
3951.921	-95
3954.462	-98
3957	-97
3959.537	-98
3962.072	-97
3964.606	-97
3967.137	-98
3969.667	-98
3972.194	-98
3974.72	-96
3977.244	-93
3979.766	-96
3982.286	-95
3984.805	-97
3987.321	-93
3989.836	-98
3992.349	-95
3994.86	-99
3997.369	-95
3999.877	-99
4002.382	-95
4004.886	-94
4007.388	-98
4009.888	-96
4012.386	-97
4014.883	-96
4017.377	-93
4019.87	-99
4022.361	-97
4024.85	-97
4027.338	-94
4029.823	-97
4032.307	-99
4034.789	-98
4037.269	-98
4039.747	-93
4042.224	-97
4044.699	-97
4047.172	-100
4049.643	-96
4052.112	-93
4054.58	-96
4057.046	-94
4059.51	-94
4061.972	-96
4064.432	-96
4066.891	-96
4069.348	-97
4071.803	-98
4074.256	-94
4076.708	-96
4079.158	-98
4081.606	-99
4084.052	-100
4086.497	-100
4088.939	-100
4091.38	-97
4093.819	-102
4096.257	-105
4098.693	-103
4101.127	-101
4103.559	-101
4105.989	-60
4108.418	-61
4110.845	-54
4113.27	-49
4115.694	-45
4118.115	-36
4120.535	-100
4122.954	-98
4125.37	-100
4127.785	-98
4130.198	-94
4132.609	-97
4135.019	-104
4137.427	-101
4139.833	-100
4142.237	-100
