Data from 2018-2-8_conc=0_RamanShift_08.txt Node
Date: Wed Feb 07 09:26:40 IST 2018
User: aro
Spectrometer: QEPB0276
Trigger mode: 0
Integration Time (sec): 3.000000E1
Scans to average: 1
Electric dark correction enabled: true
Nonlinearity correction enabled: false
Boxcar width: 0
XAxis mode: Raman Shifts
Number of Pixels in Spectrum: 1044
>>>>>Begin Spectral Data<<<<<
160.701	169
166.742	286
172.777	797
178.805	2301
184.826	5738
190.841	11682
196.849	18628
202.85	23657
208.845	25498
214.833	25314
220.815	24808
226.789	24689
232.758	24587
238.719	24447
244.674	24115
250.623	23746
256.565	23304
262.5	22790
268.429	22254
274.351	21968
280.267	21824
286.176	21243
292.079	21042
297.975	20712
303.865	20446
309.748	20314
315.625	20093
321.495	19836
327.359	19829
333.217	19772
339.068	19688
344.912	19624
350.751	19599
356.583	19631
362.408	19600
368.227	19637
374.04	19677
379.847	19797
385.647	19826
391.44	20038
397.228	20159
403.009	20235
408.784	20404
414.553	20591
420.315	20592
426.071	20581
431.821	20552
437.565	20516
443.302	20317
449.033	20379
454.758	20155
460.477	20154
466.189	20020
471.896	19961
477.596	19836
483.29	19831
488.978	19863
494.66	19788
500.335	19686
506.005	19747
511.668	19503
517.325	19387
522.977	19204
528.622	19219
534.261	19092
539.894	18944
545.521	18892
551.141	18869
556.756	18606
562.365	18547
567.968	18409
573.565	18205
579.155	18169
584.74	18105
590.319	17956
595.892	18001
601.459	17890
607.02	17876
612.575	17881
618.124	17771
623.667	17896
629.204	17875
634.735	17823
640.261	17715
645.781	17761
651.294	17510
656.802	17425
662.304	17318
667.8	17108
673.29	17148
678.775	16973
684.254	16899
689.726	16961
695.193	16814
700.655	16950
706.11	16982
711.56	16949
717.004	17005
722.442	17097
727.874	16957
733.301	16951
738.722	16958
744.137	16796
749.547	16701
754.951	16673
760.349	16513
765.741	16359
771.128	16414
776.509	16382
781.885	16368
787.254	16375
792.618	16393
797.977	16417
803.33	16515
808.677	16478
814.019	16519
819.355	16464
824.686	16448
830.011	16466
835.33	16333
840.644	16116
845.952	16000
851.255	15947
856.552	15829
861.844	15659
867.13	15646
872.41	15613
877.686	15559
882.955	15703
888.219	15751
893.478	15806
898.731	15695
903.979	15606
909.221	15667
914.458	15523
919.69	15424
924.916	15255
930.136	15010
935.351	15026
940.561	14733
945.766	14643
950.965	14633
956.158	14564
961.347	14652
966.529	14678
971.707	14657
976.879	14648
982.046	14702
987.208	14721
992.364	14606
997.515	14530
1002.66	14460
1007.801	14451
1012.936	14406
1018.066	14368
1023.19	14219
1028.309	14238
1033.423	14391
1038.532	14436
1043.636	14632
1048.734	14562
1053.827	14648
1058.915	14616
1063.998	14502
1069.075	14406
1074.147	14183
1079.214	14087
1084.276	13917
1089.333	13820
1094.385	13851
1099.431	13707
1104.472	13755
1109.509	13903
1114.54	14025
1119.565	14053
1124.586	14045
1129.602	14007
1134.613	13944
1139.618	13853
1144.619	13607
1149.614	13457
1154.604	13276
1159.589	13212
1164.57	13092
1169.545	13087
1174.515	13153
1179.48	13239
1184.44	13350
1189.395	13485
1194.345	13574
1199.29	13559
1204.23	13612
1209.165	13466
1214.095	13417
1219.021	13326
1223.941	13311
1228.856	13217
1233.766	13239
1238.672	13163
1243.572	13163
1248.467	13196
1253.358	13252
1258.244	13261
1263.124	13200
1268	13033
1272.871	12974
1277.737	13086
1282.599	12797
1287.455	12684
1292.306	12421
1297.153	12520
1301.995	12297
1306.832	12294
1311.664	12266
1316.491	12371
1321.314	12360
1326.132	12403
1330.945	12314
1335.753	12119
1340.556	11977
1345.354	11819
1350.148	11527
1354.937	11443
1359.722	11395
1364.501	11153
1369.276	11170
1374.046	11225
1378.811	11308
1383.572	11341
1388.327	11463
1393.079	11537
1397.825	11561
1402.567	11528
1407.304	11579
1412.036	11498
1416.764	11448
1421.487	11531
1426.205	11249
1430.919	11079
1435.628	10943
1440.333	10879
1445.032	10806
1449.727	10801
1454.418	10850
1459.104	10839
1463.785	10628
1468.462	10645
1473.134	10554
1477.802	10482
1482.465	10493
1487.123	10285
1491.777	10270
1496.426	10181
1501.071	10092
1505.711	10109
1510.347	10151
1514.978	10321
1519.604	10383
1524.226	10493
1528.844	10695
1533.457	10713
1538.065	10764
1542.669	10797
1547.269	10830
1551.864	10849
1556.454	10944
1561.041	10785
1565.622	10771
1570.199	10499
1574.772	10506
1579.34	10366
1583.904	10407
1588.464	10393
1593.019	10399
1597.569	10499
1602.115	10589
1606.657	10619
1611.195	10663
1615.728	10714
1620.256	10761
1624.78	10716
1629.3	10706
1633.816	10625
1638.327	10566
1642.834	10493
1647.336	10515
1651.834	10316
1656.328	10571
1660.817	10365
1665.302	10401
1669.783	10433
1674.259	10146
1678.732	10076
1683.199	9765
1687.663	9632
1692.122	9219
1696.577	9050
1701.028	8943
1705.474	8972
1709.917	8952
1714.355	8945
1718.788	8838
1723.218	8657
1727.643	8489
1732.064	8397
1736.481	8348
1740.893	8095
1745.301	7984
1749.705	7932
1754.105	7593
1758.501	7600
1762.893	7319
1767.28	7181
1771.663	6951
1776.042	6872
1780.417	6734
1784.787	6616
1789.154	6645
1793.516	6616
1797.874	6822
1802.228	6837
1806.578	7102
1810.924	7014
1815.266	7922
1819.603	7059
1823.937	7025
1828.266	6976
1832.591	6917
1836.913	6833
1841.23	6837
1845.543	6752
1849.852	6647
1854.156	6588
1858.457	6508
1862.754	6484
1867.047	6393
1871.335	6362
1875.62	6342
1879.9	6370
1884.177	6363
1888.449	6322
1892.718	6310
1896.982	6244
1901.243	6343
1905.499	6275
1909.752	6277
1914	6269
1918.245	6301
1922.485	6277
1926.722	6346
1930.954	6326
1935.183	6335
1939.408	6366
1943.628	6352
1947.845	6408
1952.058	6404
1956.267	6411
1960.472	6385
1964.673	6381
1968.87	6337
1973.063	6386
1977.252	6189
1981.438	6113
1985.619	5995
1989.797	5903
1993.971	5837
1998.14	5763
2002.306	5714
2006.469	5667
2010.627	5636
2014.781	5600
2018.932	5628
2023.078	5540
2027.221	5533
2031.36	5532
2035.495	5604
2039.627	5473
2043.754	5427
2047.878	5380
2051.998	5337
2056.114	5320
2060.226	5318
2064.334	5266
2068.439	5134
2072.54	5210
2076.637	5284
2080.73	5153
2084.82	5318
2088.906	5307
2092.988	5229
2097.066	5389
2101.14	5332
2105.211	5464
2109.278	5338
2113.342	5403
2117.401	5429
2121.457	5356
2125.509	5322
2129.558	5191
2133.602	5182
2137.643	5140
2141.681	5023
2145.714	5080
2149.744	4961
2153.77	4989
2157.793	4840
2161.812	4889
2165.827	4792
2169.838	4727
2173.846	4771
2177.851	4705
2181.851	4670
2185.848	4625
2189.841	4484
2193.831	4607
2197.817	4415
2201.799	4367
2205.778	4394
2209.753	4401
2213.725	4351
2217.693	4299
2221.657	4347
2225.618	4247
2229.575	4235
2233.529	4138
2237.479	4247
2241.425	4203
2245.368	4198
2249.307	4253
2253.243	4155
2257.175	4113
2261.104	3968
2265.029	3982
2268.95	3997
2272.868	3806
2276.783	3848
2280.694	3728
2284.601	3656
2288.505	3728
2292.405	3643
2296.302	3564
2300.195	3597
2304.085	3565
2307.971	3590
2311.854	3489
2315.734	3466
2319.609	3522
2323.482	3533
2327.351	3402
2331.216	3438
2335.078	3449
2338.937	3377
2342.792	3352
2346.643	3251
2350.492	3303
2354.336	3283
2358.178	3241
2362.015	3270
2365.85	3320
2369.681	3353
2373.508	3294
2377.333	3302
2381.153	3316
2384.971	3347
2388.785	3262
2392.595	3352
2396.402	3403
2400.206	3328
2404.007	3319
2407.804	3259
2411.597	3194
2415.388	3188
2419.174	3170
2422.958	3102
2426.738	3136
2430.515	3002
2434.289	3066
2438.059	3038
2441.825	3013
2445.589	2924
2449.349	2976
2453.106	2956
2456.859	2948
2460.61	2914
2464.356	2909
2468.1	2884
2471.84	2874
2475.577	2894
2479.311	2799
2483.041	2789
2486.768	2724
2490.492	2649
2494.213	2874
2497.93	2770
2501.644	2783
2505.355	2738
2509.062	2715
2512.766	2769
2516.467	2726
2520.165	2741
2523.859	2721
2527.551	2624
2531.239	2660
2534.923	2653
2538.605	2703
2542.283	2610
2545.958	2675
2549.63	2625
2553.299	2626
2556.964	2594
2560.626	2562
2564.285	2491
2567.941	2626
2571.594	2628
2575.243	2535
2578.89	2624
2582.533	2558
2586.173	2551
2589.809	2523
2593.443	2640
2597.073	2515
2600.701	2349
2604.325	2461
2607.946	2437
2611.564	2405
2615.178	2357
2618.79	2293
2622.398	2405
2626.004	2356
2629.606	2344
2633.205	2346
2636.801	2305
2640.394	2231
2643.983	2240
2647.57	2223
2651.153	2212
2654.734	2147
2658.311	2244
2661.885	2158
2665.456	2082
2669.025	2155
2672.589	2062
2676.151	1971
2679.71	1986
2683.266	1869
2686.819	1948
2690.368	1974
2693.915	1980
2697.458	1969
2700.999	1860
2704.536	1798
2708.071	1815
2711.602	1839
2715.13	1766
2718.656	1803
2722.178	1688
2725.697	1647
2729.214	1614
2732.727	1662
2736.237	1642
2739.744	1605
2743.249	1708
2746.75	1694
2750.248	1726
2753.743	1790
2757.236	1666
2760.725	1675
2764.211	1832
2767.695	1725
2771.175	1759
2774.652	1713
2778.127	1746
2781.598	1727
2785.067	1738
2788.532	1734
2791.995	1688
2795.455	1699
2798.911	1675
2802.365	1706
2805.816	1729
2809.264	1693
2812.709	1709
2816.151	1669
2819.59	1758
2823.026	1749
2826.46	1781
2829.89	1794
2833.318	1888
2836.742	1795
2840.164	1775
2843.583	1779
2846.999	1811
2850.412	1771
2853.822	1882
2857.229	1774
2860.634	1801
2864.035	1830
2867.434	1837
2870.83	1794
2874.223	1933
2877.613	1763
2881	2038
2884.385	2044
2887.766	2107
2891.145	2170
2894.521	2096
2897.894	2087
2901.264	1877
2904.631	2098
2907.996	2066
2911.358	2113
2914.717	2104
2918.073	2080
2921.426	1995
2924.777	2129
2928.124	2191
2931.469	2110
2934.811	2233
2938.15	2191
2941.487	2233
2944.821	2233
2948.152	2295
2951.48	2063
2954.805	2237
2958.128	2208
2961.447	2295
2964.765	2181
2968.079	2313
2971.39	2279
2974.699	2317
2978.005	2256
2981.308	2316
2984.609	2407
2987.907	2335
2991.202	2431
2994.494	2503
2997.784	2490
3001.07	2491
3004.355	2460
3007.636	2564
3010.915	2618
3014.191	2725
3017.464	2640
3020.734	2680
3024.002	2768
3027.267	2796
3030.53	2867
3033.789	2847
3037.046	2930
3040.301	2946
3043.552	3030
3046.801	3015
3050.048	3037
3053.291	3092
3056.532	3214
3059.771	3317
3063.006	3290
3066.239	3395
3069.469	3473
3072.697	3714
3075.922	3704
3079.144	3782
3082.364	3948
3085.581	4094
3088.795	4107
3092.007	4224
3095.216	4381
3098.423	4539
3101.627	4676
3104.828	4699
3108.026	4794
3111.222	4892
3114.416	4942
3117.607	5101
3120.795	5162
3123.98	5253
3127.163	5423
3130.344	5484
3133.521	5600
3136.696	5721
3139.869	5808
3143.039	5934
3146.206	6051
3149.371	6112
3152.533	6197
3155.693	6240
3158.85	6425
3162.005	6466
3165.157	6555
3168.306	6543
3171.453	6537
3174.597	6690
3177.739	6662
3180.878	6570
3184.014	6603
3187.149	6684
3190.28	6573
3193.409	6581
3196.536	6517
3199.659	6578
3202.781	6558
3205.9	6644
3209.016	6581
3212.13	6583
3215.241	6486
3218.35	6637
3221.456	6643
3224.56	6702
3227.661	6667
3230.76	6610
3233.856	6680
3236.95	6629
3240.041	6651
3243.13	6541
3246.216	6576
3249.3	6400
3252.382	6427
3255.46	6463
3258.537	5566
3261.611	6312
3264.682	6173
3267.751	6217
3270.818	6224
3273.882	6050
3276.943	5992
3280.002	5937
3283.059	5927
3286.113	5934
3289.165	5955
3292.214	5904
3295.261	5739
3298.306	5742
3301.348	5633
3304.387	5541
3307.425	5471
3310.459	5468
3313.492	5339
3316.521	5316
3319.549	5207
3322.574	5098
3325.597	5087
3328.617	4930
3331.635	4938
3334.65	4908
3337.663	4908
3340.674	4802
3343.682	4747
3346.688	4730
3349.691	4668
3352.692	4756
3355.691	4600
3358.687	4684
3361.681	4698
3364.673	4628
3367.662	4606
3370.649	4633
3373.633	4557
3376.615	4502
3379.595	4557
3382.572	4438
3385.547	4336
3388.52	4420
3391.49	4308
3394.458	4257
3397.424	4140
3400.387	4148
3403.348	3925
3406.307	3914
3409.263	3903
3412.217	3808
3415.168	3857
3418.118	3799
3421.065	3683
3424.009	3590
3426.951	3673
3429.891	3358
3432.829	3479
3435.764	3489
3438.697	3447
3441.628	3318
3444.557	3343
3447.483	3334
3450.407	3178
3453.328	3137
3456.247	3107
3459.164	3016
3462.079	2940
3464.991	2866
3467.902	2712
3470.809	2715
3473.715	2583
3476.618	2545
3479.519	2417
3482.418	2481
3485.315	2287
3488.209	2211
3491.101	2205
3493.99	2183
3496.878	1854
3499.763	1959
3502.646	1912
3505.527	1911
3508.405	1770
3511.281	1739
3514.155	1706
3517.027	1646
3519.897	1715
3522.764	1507
3525.629	1543
3528.492	1475
3531.352	1336
3534.211	1348
3537.067	1280
3539.921	1254
3542.773	1193
3545.622	1141
3548.469	1123
3551.315	1054
3554.157	970
3556.998	904
3559.837	807
3562.673	746
3565.507	814
3568.339	766
3571.169	710
3573.996	716
3576.822	650
3579.645	665
3582.466	609
3585.285	557
3588.101	516
3590.916	566
3593.728	486
3596.538	477
3599.346	426
3602.152	408
3604.956	434
3607.757	384
3610.556	425
3613.354	348
3616.149	274
3618.942	283
3621.732	139
3624.521	285
3627.307	158
3630.092	234
3632.874	124
3635.654	192
3638.432	181
3641.208	118
3643.982	134
3646.753	102
3649.523	155
3652.29	121
3655.055	126
3657.818	7
3660.579	84
3663.338	121
3666.095	-62
3668.849	113
3671.602	-3
3674.352	59
3677.101	-67
3679.847	-72
3682.591	-18
3685.333	-57
3688.073	-127
3690.811	-9
3693.547	-17
3696.281	-33
3699.013	-166
3701.742	-141
3704.47	-81
3707.195	-118
3709.919	-198
3712.64	-179
3715.359	-295
3718.076	-201
3720.792	-151
3723.505	-170
3726.216	-167
3728.925	-174
3731.632	-312
3734.336	-109
3737.039	-183
3739.74	-173
3742.439	-64
3745.136	-198
3747.83	-203
3750.523	-208
3753.213	-482
3755.902	-194
3758.589	-230
3761.273	-174
3763.956	-276
3766.636	-180
3769.315	-247
3771.991	-163
3774.665	-202
3777.338	-166
3780.008	-187
3782.677	-218
3785.343	-157
3788.007	-246
3790.67	-251
3793.33	-219
3795.989	-280
3798.645	-275
3801.299	-208
3803.952	-263
3806.602	-284
3809.251	-230
3811.897	-249
3814.542	-261
3817.184	-232
3819.825	-291
3822.463	-235
3825.1	-246
3827.735	-268
3830.367	-289
3832.998	-361
3835.627	-329
3838.253	-271
3840.878	-240
3843.501	-307
3846.122	-262
3848.741	-316
3851.358	-303
3853.973	-251
3856.586	-286
3859.197	-332
3861.806	-333
3864.414	-224
3867.019	-282
3869.622	-328
3872.224	-339
3874.823	-194
3877.421	-213
3880.016	-213
3882.61	-132
3885.202	-210
3887.792	-176
3890.38	-267
3892.966	-297
3895.55	-251
3898.132	-250
3900.713	-336
3903.291	-306
3905.868	-297
3908.442	-304
3911.015	-335
3913.586	-343
3916.155	-353
3918.722	-259
3921.287	-301
3923.85	-257
3926.411	-330
3928.971	-361
3931.528	-335
3934.084	-318
3936.638	-326
3939.19	-355
3941.74	-318
3944.288	-312
3946.834	-305
3949.378	-307
3951.921	-248
3954.462	-364
3957	-349
3959.537	-247
3962.072	-254
3964.606	-216
3967.137	-283
3969.667	-307
3972.194	-286
3974.72	-280
3977.244	-302
3979.766	-284
3982.286	-206
3984.805	-299
3987.321	-293
3989.836	-343
3992.349	-267
3994.86	-337
3997.369	-309
3999.877	-344
4002.382	-350
4004.886	-285
4007.388	-330
4009.888	-200
4012.386	-365
4014.883	-270
4017.377	-338
4019.87	-389
4022.361	-262
4024.85	-288
4027.338	-146
4029.823	-318
4032.307	-320
4034.789	-251
4037.269	-230
4039.747	-210
4042.224	-276
4044.699	-261
4047.172	-286
4049.643	-358
4052.112	-294
4054.58	-275
4057.046	-319
4059.51	-219
4061.972	-374
4064.432	-211
4066.891	-339
4069.348	-248
4071.803	-374
4074.256	-301
4076.708	-309
4079.158	-288
4081.606	-360
4084.052	-273
4086.497	-212
4088.939	-286
4091.38	-272
4093.819	-289
4096.257	-898
4098.693	-866
4101.127	-895
4103.559	-905
4105.989	-2
4108.418	-153
4110.845	92
4113.27	-71
4115.694	34
4118.115	45
4120.535	-312
4122.954	-348
4125.37	-357
4127.785	-301
4130.198	-343
4132.609	-309
4135.019	-921
4137.427	-906
4139.833	-906
4142.237	-820
