Data from 2018-2-8_conc=0_RamanShift_07.txt Node
Date: Wed Feb 07 09:26:10 IST 2018
User: aro
Spectrometer: QEPB0276
Trigger mode: 0
Integration Time (sec): 3.000000E1
Scans to average: 1
Electric dark correction enabled: true
Nonlinearity correction enabled: false
Boxcar width: 0
XAxis mode: Raman Shifts
Number of Pixels in Spectrum: 1044
>>>>>Begin Spectral Data<<<<<
160.701	140
166.742	244
172.777	773
178.805	2384
184.826	5901
190.841	12109
196.849	19298
202.85	24492
208.845	26429
214.833	26231
220.815	25736
226.789	25616
232.758	25597
238.719	25504
244.674	25291
250.623	24810
256.565	24298
262.5	23913
268.429	23360
274.351	23153
280.267	23139
286.176	22461
292.079	22193
297.975	21911
303.865	21679
309.748	21535
315.625	21375
321.495	21022
327.359	21140
333.217	20944
339.068	20936
344.912	20893
350.751	20893
356.583	20845
362.408	20866
368.227	20925
374.04	20983
379.847	21087
385.647	21165
391.44	21271
397.228	21429
403.009	21574
408.784	21760
414.553	21825
420.315	21985
426.071	21914
431.821	21948
437.565	21788
443.302	21683
449.033	21622
454.758	21519
460.477	21396
466.189	21405
471.896	21323
477.596	21164
483.29	21211
488.978	21184
494.66	21104
500.335	20986
506.005	21038
511.668	20857
517.325	20742
522.977	20582
528.622	20442
534.261	20390
539.894	20256
545.521	20232
551.141	20143
556.756	19871
562.365	19830
567.968	19679
573.565	19497
579.155	19451
584.74	19297
590.319	19218
595.892	19207
601.459	19133
607.02	19218
612.575	19118
618.124	19026
623.667	19202
629.204	19077
634.735	19037
640.261	19030
645.781	19002
651.294	18752
656.802	18641
662.304	18564
667.8	18333
673.29	18323
678.775	18194
684.254	18139
689.726	18268
695.193	18161
700.655	18121
706.11	18256
711.56	18301
717.004	18255
722.442	18239
727.874	18213
733.301	18163
738.722	18180
744.137	17959
749.547	17938
754.951	17849
760.349	17672
765.741	17583
771.128	17551
776.509	17552
781.885	17490
787.254	17539
792.618	17615
797.977	17709
803.33	17655
808.677	17757
814.019	17705
819.355	17704
824.686	17706
830.011	17713
835.33	17440
840.644	17321
845.952	17301
851.255	17043
856.552	17004
861.844	16817
867.13	16784
872.41	16756
877.686	16753
882.955	16928
888.219	16983
893.478	16978
898.731	16897
903.979	16845
909.221	16856
914.458	16701
919.69	16539
924.916	16432
930.136	16186
935.351	16118
940.561	15882
945.766	15798
950.965	15684
956.158	15707
961.347	15798
966.529	15690
971.707	15735
976.879	15753
982.046	15878
987.208	15807
992.364	15677
997.515	15647
1002.66	15539
1007.801	15511
1012.936	15548
1018.066	15481
1023.19	15342
1028.309	15317
1033.423	15397
1038.532	15534
1043.636	15661
1048.734	15667
1053.827	15699
1058.915	15732
1063.998	15633
1069.075	15416
1074.147	15206
1079.214	15136
1084.276	14895
1089.333	14883
1094.385	14877
1099.431	14796
1104.472	14809
1109.509	14948
1114.54	15039
1119.565	15020
1124.586	15032
1129.602	15048
1134.613	14965
1139.618	14823
1144.619	14570
1149.614	14407
1154.604	14259
1159.589	14186
1164.57	14057
1169.545	14128
1174.515	14075
1179.48	14153
1184.44	14313
1189.395	14495
1194.345	14466
1199.29	14513
1204.23	14617
1209.165	14497
1214.095	14408
1219.021	14310
1223.941	14252
1228.856	14219
1233.766	14138
1238.672	14078
1243.572	14130
1248.467	14107
1253.358	14305
1258.244	14237
1263.124	14167
1268	14031
1272.871	14058
1277.737	13936
1282.599	13660
1287.455	13513
1292.306	13312
1297.153	13372
1301.995	13116
1306.832	13151
1311.664	13174
1316.491	13249
1321.314	13228
1326.132	13171
1330.945	13130
1335.753	12997
1340.556	12785
1345.354	12602
1350.148	12354
1354.937	12194
1359.722	12106
1364.501	11942
1369.276	11913
1374.046	11964
1378.811	12045
1383.572	12139
1388.327	12182
1393.079	12269
1397.825	12391
1402.567	12304
1407.304	12337
1412.036	12311
1416.764	12260
1421.487	12323
1426.205	12018
1430.919	11824
1435.628	11728
1440.333	11595
1445.032	11436
1449.727	11521
1454.418	11559
1459.104	11516
1463.785	11263
1468.462	11429
1473.134	11318
1477.802	11107
1482.465	11126
1487.123	10920
1491.777	10916
1496.426	10848
1501.071	10775
1505.711	10777
1510.347	10809
1514.978	10977
1519.604	11006
1524.226	11184
1528.844	11374
1533.457	11399
1538.065	11427
1542.669	11493
1547.269	11559
1551.864	11553
1556.454	11577
1561.041	11485
1565.622	11395
1570.199	11189
1574.772	11111
1579.34	10964
1583.904	11031
1588.464	11077
1593.019	11044
1597.569	11168
1602.115	11165
1606.657	11226
1611.195	11279
1615.728	11305
1620.256	11307
1624.78	11382
1629.3	11288
1633.816	11226
1638.327	11144
1642.834	11033
1647.336	11039
1651.834	10981
1656.328	10994
1660.817	10916
1665.302	10929
1669.783	10887
1674.259	10657
1678.732	10582
1683.199	10329
1687.663	10086
1692.122	9726
1696.577	9550
1701.028	9417
1705.474	9483
1709.917	9427
1714.355	9473
1718.788	9375
1723.218	9261
1727.643	8931
1732.064	8888
1736.481	8746
1740.893	8616
1745.301	8490
1749.705	8409
1754.105	8106
1758.501	8076
1762.893	7759
1767.28	7600
1771.663	7397
1776.042	7286
1780.417	7169
1784.787	6992
1789.154	7023
1793.516	7014
1797.874	7258
1802.228	7329
1806.578	7482
1810.924	7499
1815.266	8056
1819.603	7494
1823.937	7495
1828.266	7395
1832.591	7361
1836.913	7252
1841.23	7230
1845.543	7194
1849.852	7066
1854.156	6956
1858.457	6929
1862.754	6899
1867.047	6785
1871.335	6715
1875.62	6745
1879.9	6688
1884.177	6735
1888.449	6696
1892.718	6650
1896.982	6633
1901.243	6742
1905.499	6663
1909.752	6662
1914	6668
1918.245	6602
1922.485	6598
1926.722	6649
1930.954	6687
1935.183	6656
1939.408	6674
1943.628	6717
1947.845	6725
1952.058	6755
1956.267	6754
1960.472	6661
1964.673	6771
1968.87	6691
1973.063	6660
1977.252	6543
1981.438	6417
1985.619	6370
1989.797	6264
1993.971	6173
1998.14	6050
2002.306	6079
2006.469	6010
2010.627	5947
2014.781	5903
2018.932	5905
2023.078	5849
2027.221	5856
2031.36	5897
2035.495	5850
2039.627	5771
2043.754	5762
2047.878	5660
2051.998	5638
2056.114	5627
2060.226	5617
2064.334	5519
2068.439	5410
2072.54	5432
2076.637	5546
2080.73	5532
2084.82	5503
2088.906	5531
2092.988	5515
2097.066	5669
2101.14	5610
2105.211	5668
2109.278	5688
2113.342	5653
2117.401	5680
2121.457	5604
2125.509	5562
2129.558	5438
2133.602	5500
2137.643	5347
2141.681	5268
2145.714	5267
2149.744	5200
2153.77	5199
2157.793	5133
2161.812	5145
2165.827	5034
2169.838	5031
2173.846	5037
2177.851	4934
2181.851	4850
2185.848	4863
2189.841	4685
2193.831	4823
2197.817	4660
2201.799	4658
2205.778	4663
2209.753	4557
2213.725	4573
2217.693	4525
2221.657	4523
2225.618	4481
2229.575	4479
2233.529	4423
2237.479	4492
2241.425	4416
2245.368	4440
2249.307	4379
2253.243	4386
2257.175	4341
2261.104	4229
2265.029	4191
2268.95	4150
2272.868	4074
2276.783	4030
2280.694	3965
2284.601	3837
2288.505	3904
2292.405	3797
2296.302	3812
2300.195	3739
2304.085	3803
2307.971	3723
2311.854	3710
2315.734	3659
2319.609	3649
2323.482	3691
2327.351	3662
2331.216	3618
2335.078	3620
2338.937	3583
2342.792	3557
2346.643	3438
2350.492	3500
2354.336	3464
2358.178	3455
2362.015	3486
2365.85	3410
2369.681	3507
2373.508	3481
2377.333	3458
2381.153	3527
2384.971	3511
2388.785	3505
2392.595	3494
2396.402	3594
2400.206	3536
2404.007	3526
2407.804	3492
2411.597	3278
2415.388	3379
2419.174	3324
2422.958	3304
2426.738	3255
2430.515	3190
2434.289	3287
2438.059	3200
2441.825	3173
2445.589	3127
2449.349	3104
2453.106	3078
2456.859	3073
2460.61	3124
2464.356	3093
2468.1	3064
2471.84	3080
2475.577	3051
2479.311	3010
2483.041	2943
2486.768	2886
2490.492	2827
2494.213	3111
2497.93	2914
2501.644	2915
2505.355	2891
2509.062	2852
2512.766	2864
2516.467	2895
2520.165	2872
2523.859	2820
2527.551	2738
2531.239	2789
2534.923	2798
2538.605	2887
2542.283	2726
2545.958	2773
2549.63	2714
2553.299	2665
2556.964	2700
2560.626	2698
2564.285	2641
2567.941	2750
2571.594	2740
2575.243	2527
2578.89	2687
2582.533	2688
2586.173	2628
2589.809	2620
2593.443	2733
2597.073	2637
2600.701	2530
2604.325	2605
2607.946	2554
2611.564	2487
2615.178	2476
2618.79	2470
2622.398	2509
2626.004	2494
2629.606	2475
2633.205	2536
2636.801	2425
2640.394	2324
2643.983	2350
2647.57	2362
2651.153	2314
2654.734	2276
2658.311	2335
2661.885	2280
2665.456	2234
2669.025	2153
2672.589	2129
2676.151	2054
2679.71	2068
2683.266	1976
2686.819	2082
2690.368	2033
2693.915	2085
2697.458	2028
2700.999	1923
2704.536	1908
2708.071	1894
2711.602	1908
2715.13	1823
2718.656	1838
2722.178	1754
2725.697	1764
2729.214	1674
2732.727	1667
2736.237	1725
2739.744	1755
2743.249	1739
2746.75	1700
2750.248	1751
2753.743	1768
2757.236	1767
2760.725	1790
2764.211	1959
2767.695	1793
2771.175	1814
2774.652	1802
2778.127	1801
2781.598	1801
2785.067	1760
2788.532	1816
2791.995	1820
2795.455	1723
2798.911	1729
2802.365	1860
2805.816	1752
2809.264	1774
2812.709	1805
2816.151	1796
2819.59	1789
2823.026	1818
2826.46	1833
2829.89	1824
2833.318	1952
2836.742	1835
2840.164	1847
2843.583	1881
2846.999	1878
2850.412	1819
2853.822	1936
2857.229	1889
2860.634	1816
2864.035	1936
2867.434	1877
2870.83	1873
2874.223	1981
2877.613	1827
2881	2059
2884.385	2169
2887.766	2153
2891.145	2186
2894.521	2092
2897.894	2192
2901.264	1917
2904.631	2156
2907.996	2178
2911.358	2136
2914.717	2158
2918.073	2076
2921.426	2059
2924.777	2133
2928.124	2193
2931.469	2119
2934.811	2305
2938.15	2238
2941.487	2237
2944.821	2225
2948.152	2355
2951.48	2110
2954.805	2277
2958.128	2226
2961.447	2338
2964.765	2250
2968.079	2372
2971.39	2318
2974.699	2269
2978.005	2300
2981.308	2356
2984.609	2447
2987.907	2389
2991.202	2450
2994.494	2536
2997.784	2489
3001.07	2485
3004.355	2523
3007.636	2577
3010.915	2654
3014.191	2767
3017.464	2715
3020.734	2710
3024.002	2827
3027.267	2799
3030.53	2842
3033.789	2904
3037.046	2998
3040.301	2968
3043.552	3042
3046.801	3119
3050.048	3042
3053.291	3108
3056.532	3261
3059.771	3289
3063.006	3346
3066.239	3449
3069.469	3537
3072.697	3730
3075.922	3730
3079.144	3860
3082.364	3921
3085.581	4149
3088.795	4131
3092.007	4212
3095.216	4427
3098.423	4562
3101.627	4698
3104.828	4727
3108.026	4838
3111.222	4964
3114.416	4971
3117.607	5069
3120.795	5163
3123.98	5275
3127.163	5446
3130.344	5509
3133.521	5547
3136.696	5730
3139.869	5738
3143.039	5995
3146.206	6028
3149.371	6135
3152.533	6288
3155.693	6324
3158.85	6439
3162.005	6459
3165.157	6537
3168.306	6599
3171.453	6601
3174.597	6688
3177.739	6740
3180.878	6642
3184.014	6613
3187.149	6615
3190.28	6623
3193.409	6555
3196.536	6586
3199.659	6592
3202.781	6604
3205.9	6645
3209.016	6615
3212.13	6630
3215.241	6540
3218.35	6663
3221.456	6656
3224.56	6694
3227.661	6673
3230.76	6679
3233.856	6668
3236.95	6595
3240.041	6656
3243.13	6527
3246.216	6532
3249.3	6392
3252.382	6407
3255.46	6452
3258.537	6481
3261.611	6350
3264.682	6208
3267.751	6206
3270.818	6232
3273.882	6048
3276.943	5978
3280.002	5975
3283.059	5944
3286.113	5928
3289.165	5925
3292.214	5927
3295.261	5695
3298.306	5735
3301.348	5620
3304.387	5587
3307.425	5504
3310.459	5494
3313.492	5272
3316.521	5298
3319.549	5102
3322.574	5142
3325.597	5044
3328.617	5001
3331.635	4899
3334.65	4911
3337.663	4872
3340.674	4852
3343.682	4745
3346.688	4694
3349.691	4727
3352.692	4744
3355.691	4567
3358.687	4673
3361.681	4703
3364.673	4655
3367.662	4535
3370.649	4616
3373.633	4554
3376.615	4501
3379.595	4563
3382.572	4428
3385.547	4244
3388.52	4372
3391.49	4345
3394.458	4282
3397.424	4112
3400.387	4132
3403.348	3895
3406.307	3900
3409.263	3934
3412.217	3787
3415.168	3749
3418.118	3752
3421.065	3681
3424.009	3585
3426.951	3587
3429.891	3408
3432.829	3535
3435.764	3490
3438.697	3493
3441.628	3307
3444.557	3330
3447.483	3298
3450.407	3190
3453.328	3133
3456.247	3094
3459.164	2995
3462.079	2875
3464.991	2851
3467.902	2755
3470.809	2690
3473.715	2573
3476.618	2515
3479.519	2447
3482.418	2404
3485.315	2252
3488.209	2201
3491.101	2172
3493.99	2140
3496.878	1821
3499.763	1924
3502.646	1920
3505.527	1918
3508.405	1754
3511.281	1727
3514.155	1690
3517.027	1676
3519.897	1662
3522.764	1540
3525.629	1526
3528.492	1438
3531.352	1336
3534.211	1295
3537.067	1326
3539.921	1236
3542.773	1210
3545.622	1154
3548.469	1124
3551.315	1081
3554.157	913
3556.998	843
3559.837	796
3562.673	754
3565.507	787
3568.339	745
3571.169	734
3573.996	695
3576.822	716
3579.645	657
3582.466	633
3585.285	537
3588.101	512
3590.916	557
3593.728	463
3596.538	470
3599.346	382
3602.152	385
3604.956	420
3607.757	407
3610.556	416
3613.354	290
3616.149	338
3618.942	256
3621.732	96
3624.521	244
3627.307	159
3630.092	187
3632.874	135
3635.654	178
3638.432	204
3641.208	88
3643.982	115
3646.753	119
3649.523	119
3652.29	93
3655.055	139
3657.818	5
3660.579	77
3663.338	69
3666.095	-77
3668.849	83
3671.602	-100
3674.352	42
3677.101	-26
3679.847	-122
3682.591	-65
3685.333	-38
3688.073	-149
3690.811	-74
3693.547	-21
3696.281	-74
3699.013	-152
3701.742	-167
3704.47	-105
3707.195	-116
3709.919	-178
3712.64	-163
3715.359	-321
3718.076	-264
3720.792	-187
3723.505	-182
3726.216	-169
3728.925	-174
3731.632	-287
3734.336	-120
3737.039	-182
3739.74	-171
3742.439	20
3745.136	-209
3747.83	-193
3750.523	-180
3753.213	-585
3755.902	-258
3758.589	-265
3761.273	-171
3763.956	-289
3766.636	-226
3769.315	-263
3771.991	-177
3774.665	-237
3777.338	-197
3780.008	-242
3782.677	-268
3785.343	-163
3788.007	-336
3790.67	-265
3793.33	-243
3795.989	-230
3798.645	-241
3801.299	-190
3803.952	-290
3806.602	-293
3809.251	-222
3811.897	-216
3814.542	-272
3817.184	-303
3819.825	-263
3822.463	-274
3825.1	-277
3827.735	-245
3830.367	-276
3832.998	-326
3835.627	-283
3838.253	-294
3840.878	-237
3843.501	-412
3846.122	-293
3848.741	-311
3851.358	-303
3853.973	-194
3856.586	-256
3859.197	-366
3861.806	-386
3864.414	-264
3867.019	-320
3869.622	-347
3872.224	-361
3874.823	-213
3877.421	-233
3880.016	-187
3882.61	-148
3885.202	-225
3887.792	-245
3890.38	-345
3892.966	-271
3895.55	-261
3898.132	-270
3900.713	-318
3903.291	-307
3905.868	-304
3908.442	-295
3911.015	-336
3913.586	-312
3916.155	-321
3918.722	-326
3921.287	-327
3923.85	-272
3926.411	-355
3928.971	-340
3931.528	-335
3934.084	-369
3936.638	-335
3939.19	-355
3941.74	-344
3944.288	-362
3946.834	-265
3949.378	-324
3951.921	-267
3954.462	-315
3957	-340
3959.537	-257
3962.072	-299
3964.606	-234
3967.137	-285
3969.667	-325
3972.194	-325
3974.72	-303
3977.244	-259
3979.766	-295
3982.286	-226
3984.805	-343
3987.321	-337
3989.836	-328
3992.349	-246
3994.86	-299
3997.369	-295
3999.877	-432
4002.382	-335
4004.886	-300
4007.388	-255
4009.888	-195
4012.386	-361
4014.883	-299
4017.377	-347
4019.87	-406
4022.361	-308
4024.85	-248
4027.338	-232
4029.823	-327
4032.307	-360
4034.789	-263
4037.269	-266
4039.747	-248
4042.224	-320
4044.699	-305
4047.172	-318
4049.643	-341
4052.112	-268
4054.58	-322
4057.046	-299
4059.51	-250
4061.972	-394
4064.432	-202
4066.891	-368
4069.348	-223
4071.803	-348
4074.256	-364
4076.708	-283
4079.158	-335
4081.606	-354
4084.052	-300
4086.497	-336
4088.939	-302
4091.38	-279
4093.819	-289
4096.257	-876
4098.693	-866
4101.127	-915
4103.559	-906
4105.989	-4
4108.418	-114
4110.845	29
4113.27	-83
4115.694	46
4118.115	83
4120.535	-322
4122.954	-396
4125.37	-344
4127.785	-328
4130.198	-368
4132.609	-382
4135.019	-920
4137.427	-927
4139.833	-875
4142.237	-819
