Data from 1000CFU2_A_ramanshift_RamanShift_11-44-52-728.txt Node
Date: Sun Jan 01 11:44:52 IST 2017
User: aro
Spectrometer: QEPB0276
Trigger mode: 0
Integration Time (sec): 5.000000E0
Scans to average: 1
Electric dark correction enabled: true
Nonlinearity correction enabled: false
Boxcar width: 0
XAxis mode: Raman Shifts
Number of Pixels in Spectrum: 1044
>>>>>Begin Spectral Data<<<<<
160.701	3
166.742	19
172.777	60
178.805	197
184.826	617
190.841	1458
196.849	2735
202.85	3884
208.845	4442
214.833	4429
220.815	4271
226.789	4153
232.758	4019
238.719	3922
244.674	3800
250.623	3628
256.565	3497
262.5	3362
268.429	3217
274.351	3062
280.267	2967
286.176	2866
292.079	2772
297.975	2682
303.865	2612
309.748	2553
315.625	2491
321.495	2420
327.359	2386
333.217	2351
339.068	2342
344.912	2312
350.751	2329
356.583	2298
362.408	2291
368.227	2296
374.04	2284
379.847	2299
385.647	2297
391.44	2326
397.228	2324
403.009	2351
408.784	2351
414.553	2355
420.315	2383
426.071	2364
431.821	2359
437.565	2359
443.302	2375
449.033	2358
454.758	2329
460.477	2359
466.189	2327
471.896	2326
477.596	2309
483.29	2321
488.978	2280
494.66	2292
500.335	2262
506.005	2223
511.668	2203
517.325	2193
522.977	2119
528.622	2097
534.261	2074
539.894	2061
545.521	2025
551.141	2002
556.756	2012
562.365	1999
567.968	1986
573.565	1990
579.155	1982
584.74	1950
590.319	1953
595.892	1918
601.459	1906
607.02	1914
612.575	1885
618.124	1884
623.667	1862
629.204	1851
634.735	1810
640.261	1823
645.781	1798
651.294	1804
656.802	1802
662.304	1779
667.8	1758
673.29	1772
678.775	1768
684.254	1764
689.726	1748
695.193	1747
700.655	1737
706.11	1721
711.56	1694
717.004	1690
722.442	1702
727.874	1678
733.301	1666
738.722	1671
744.137	1659
749.547	1646
754.951	1650
760.349	1651
765.741	1637
771.128	1645
776.509	1643
781.885	1654
787.254	1633
792.618	1643
797.977	1643
803.33	1627
808.677	1589
814.019	1586
819.355	1567
824.686	1569
830.011	1551
835.33	1541
840.644	1536
845.952	1525
851.255	1532
856.552	1515
861.844	1508
867.13	1500
872.41	1494
877.686	1491
882.955	1465
888.219	1455
893.478	1433
898.731	1421
903.979	1389
909.221	1391
914.458	1381
919.69	1367
924.916	1361
930.136	1378
935.351	1362
940.561	1358
945.766	1376
950.965	1345
956.158	1354
961.347	1351
966.529	1337
971.707	1316
976.879	1290
982.046	1277
987.208	1268
992.364	1270
997.515	1280
1002.66	1288
1007.801	1296
1012.936	1294
1018.066	1313
1023.19	1308
1028.309	1328
1033.423	1307
1038.532	1306
1043.636	1314
1048.734	1297
1053.827	1280
1058.915	1276
1063.998	1258
1069.075	1254
1074.147	1259
1079.214	1248
1084.276	1270
1089.333	1277
1094.385	1270
1099.431	1301
1104.472	1293
1109.509	1300
1114.54	1292
1119.565	1278
1124.586	1260
1129.602	1260
1134.613	1237
1139.618	1228
1144.619	1230
1149.614	1238
1154.604	1232
1159.589	1241
1164.57	1248
1169.545	1254
1174.515	1249
1179.48	1263
1184.44	1238
1189.395	1233
1194.345	1240
1199.29	1233
1204.23	1224
1209.165	1238
1214.095	1251
1219.021	1250
1223.941	1263
1228.856	1260
1233.766	1267
1238.672	1282
1243.572	1274
1248.467	1252
1253.358	1255
1258.244	1254
1263.124	1231
1268	1212
1272.871	1194
1277.737	1189
1282.599	1192
1287.455	1187
1292.306	1182
1297.153	1201
1301.995	1195
1306.832	1216
1311.664	1207
1316.491	1223
1321.314	1216
1326.132	1206
1330.945	1193
1335.753	1182
1340.556	1176
1345.354	1160
1350.148	1144
1354.937	1149
1359.722	1130
1364.501	1128
1369.276	1116
1374.046	1107
1378.811	1097
1383.572	1100
1388.327	1100
1393.079	1096
1397.825	1093
1402.567	1088
1407.304	1079
1412.036	1078
1416.764	1074
1421.487	1070
1426.205	1081
1430.919	1072
1435.628	1090
1440.333	1103
1445.032	1102
1449.727	1116
1454.418	1116
1459.104	1124
1463.785	1124
1468.462	1106
1473.134	1109
1477.802	1087
1482.465	1074
1487.123	1085
1491.777	1065
1496.426	1071
1501.071	1083
1505.711	1091
1510.347	1098
1514.978	1119
1519.604	1127
1524.226	1113
1528.844	1116
1533.457	1145
1538.065	1123
1542.669	1118
1547.269	1125
1551.864	1139
1556.454	1136
1561.041	1135
1565.622	1153
1570.199	1159
1574.772	1166
1579.34	1174
1583.904	1217
1588.464	1227
1593.019	1249
1597.569	1271
1602.115	1271
1606.657	1295
1611.195	1279
1615.728	1314
1620.256	1306
1624.78	1347
1629.3	1354
1633.816	1354
1638.327	1368
1642.834	1390
1647.336	1408
1651.834	1405
1656.328	1413
1660.817	1405
1665.302	1391
1669.783	1376
1674.259	1332
1678.732	1302
1683.199	1263
1687.663	1224
1692.122	1204
1696.577	1157
1701.028	1113
1705.474	1060
1709.917	1033
1714.355	1006
1718.788	997
1723.218	985
1727.643	968
1732.064	948
1736.481	948
1740.893	919
1745.301	904
1749.705	870
1754.105	862
1758.501	847
1762.893	823
1767.28	816
1771.663	799
1776.042	797
1780.417	779
1784.787	785
1789.154	792
1793.516	784
1797.874	795
1802.228	791
1806.578	798
1810.924	764
1815.266	757
1819.603	753
1823.937	744
1828.266	731
1832.591	737
1836.913	729
1841.23	727
1845.543	719
1849.852	729
1854.156	723
1858.457	726
1862.754	740
1867.047	732
1871.335	747
1875.62	747
1879.9	752
1884.177	756
1888.449	743
1892.718	736
1896.982	734
1901.243	734
1905.499	725
1909.752	733
1914	740
1918.245	726
1922.485	731
1926.722	733
1930.954	736
1935.183	724
1939.408	743
1943.628	743
1947.845	737
1952.058	733
1956.267	732
1960.472	729
1964.673	712
1968.87	699
1973.063	696
1977.252	692
1981.438	691
1985.619	697
1989.797	692
1993.971	706
1998.14	691
2002.306	703
2006.469	711
2010.627	713
2014.781	711
2018.932	720
2023.078	704
2027.221	704
2031.36	693
2035.495	699
2039.627	691
2043.754	693
2047.878	680
2051.998	685
2056.114	685
2060.226	691
2064.334	679
2068.439	687
2072.54	690
2076.637	694
2080.73	695
2084.82	690
2088.906	692
2092.988	698
2097.066	697
2101.14	683
2105.211	693
2109.278	674
2113.342	675
2117.401	668
2121.457	676
2125.509	672
2129.558	664
2133.602	668
2137.643	659
2141.681	668
2145.714	658
2149.744	652
2153.77	662
2157.793	659
2161.812	640
2165.827	641
2169.838	619
2173.846	624
2177.851	621
2181.851	622
2185.848	605
2189.841	598
2193.831	591
2197.817	590
2201.799	580
2205.778	586
2209.753	586
2213.725	583
2217.693	589
2221.657	587
2225.618	577
2229.575	572
2233.529	569
2237.479	578
2241.425	557
2245.368	565
2249.307	554
2253.243	534
2257.175	530
2261.104	532
2265.029	527
2268.95	522
2272.868	505
2276.783	513
2280.694	490
2284.601	496
2288.505	496
2292.405	491
2296.302	487
2300.195	476
2304.085	482
2307.971	475
2311.854	454
2315.734	467
2319.609	444
2323.482	442
2327.351	439
2331.216	438
2335.078	437
2338.937	438
2342.792	425
2346.643	425
2350.492	423
2354.336	415
2358.178	423
2362.015	419
2365.85	428
2369.681	420
2373.508	428
2377.333	429
2381.153	427
2384.971	432
2388.785	419
2392.595	420
2396.402	415
2400.206	421
2404.007	415
2407.804	417
2411.597	409
2415.388	418
2419.174	407
2422.958	412
2426.738	414
2430.515	410
2434.289	406
2438.059	393
2441.825	403
2445.589	393
2449.349	387
2453.106	391
2456.859	394
2460.61	382
2464.356	376
2468.1	380
2471.84	382
2475.577	377
2479.311	382
2483.041	378
2486.768	377
2490.492	380
2494.213	379
2497.93	374
2501.644	377
2505.355	382
2509.062	375
2512.766	375
2516.467	371
2520.165	371
2523.859	364
2527.551	364
2531.239	363
2534.923	371
2538.605	351
2542.283	354
2545.958	347
2549.63	358
2553.299	350
2556.964	348
2560.626	336
2564.285	343
2567.941	352
2571.594	340
2575.243	329
2578.89	337
2582.533	337
2586.173	334
2589.809	330
2593.443	324
2597.073	321
2600.701	324
2604.325	316
2607.946	330
2611.564	322
2615.178	322
2618.79	323
2622.398	323
2626.004	316
2629.606	320
2633.205	315
2636.801	315
2640.394	313
2643.983	304
2647.57	309
2651.153	303
2654.734	292
2658.311	295
2661.885	298
2665.456	291
2669.025	283
2672.589	287
2676.151	280
2679.71	282
2683.266	278
2686.819	276
2690.368	270
2693.915	271
2697.458	266
2700.999	266
2704.536	258
2708.071	265
2711.602	256
2715.13	260
2718.656	256
2722.178	260
2725.697	258
2729.214	256
2732.727	256
2736.237	257
2739.744	262
2743.249	264
2746.75	260
2750.248	262
2753.743	257
2757.236	251
2760.725	254
2764.211	251
2767.695	254
2771.175	248
2774.652	242
2778.127	247
2781.598	246
2785.067	251
2788.532	246
2791.995	242
2795.455	245
2798.911	249
2802.365	246
2805.816	249
2809.264	255
2812.709	254
2816.151	250
2819.59	251
2823.026	254
2826.46	253
2829.89	249
2833.318	242
2836.742	251
2840.164	253
2843.583	260
2846.999	260
2850.412	262
2853.822	259
2857.229	255
2860.634	261
2864.035	263
2867.434	267
2870.83	267
2874.223	267
2877.613	266
2881	269
2884.385	259
2887.766	270
2891.145	273
2894.521	272
2897.894	278
2901.264	276
2904.631	274
2907.996	277
2911.358	276
2914.717	276
2918.073	283
2921.426	281
2924.777	286
2928.124	296
2931.469	298
2934.811	303
2938.15	309
2941.487	310
2944.821	313
2948.152	317
2951.48	315
2954.805	321
2958.128	327
2961.447	331
2964.765	319
2968.079	344
2971.39	337
2974.699	350
2978.005	357
2981.308	361
2984.609	361
2987.907	378
2991.202	377
2994.494	399
2997.784	399
3001.07	416
3004.355	411
3007.636	435
3010.915	439
3014.191	442
3017.464	444
3020.734	453
3024.002	456
3027.267	466
3030.53	475
3033.789	493
3037.046	494
3040.301	497
3043.552	519
3046.801	529
3050.048	544
3053.291	543
3056.532	550
3059.771	579
3063.006	589
3066.239	612
3069.469	628
3072.697	643
3075.922	659
3079.144	666
3082.364	686
3085.581	700
3088.795	726
3092.007	730
3095.216	753
3098.423	754
3101.627	774
3104.828	795
3108.026	809
3111.222	818
3114.416	830
3117.607	849
3120.795	879
3123.98	888
3127.163	921
3130.344	945
3133.521	946
3136.696	969
3139.869	995
3143.039	1009
3146.206	1031
3149.371	1047
3152.533	1047
3155.693	1061
3158.85	1070
3162.005	1069
3165.157	1072
3168.306	1083
3171.453	1080
3174.597	1088
3177.739	1108
3180.878	1115
3184.014	1107
3187.149	1104
3190.28	1102
3193.409	1111
3196.536	1124
3199.659	1123
3202.781	1129
3205.9	1134
3209.016	1136
3212.13	1116
3215.241	1131
3218.35	1131
3221.456	1101
3224.56	1090
3227.661	1074
3230.76	1082
3233.856	1071
3236.95	1072
3240.041	1056
3243.13	1050
3246.216	1045
3249.3	1030
3252.382	1029
3255.46	1019
3258.537	1005
3261.611	1017
3264.682	1009
3267.751	1002
3270.818	1011
3273.882	989
3276.943	992
3280.002	987
3283.059	979
3286.113	969
3289.165	957
3292.214	942
3295.261	926
3298.306	922
3301.348	904
3304.387	900
3307.425	884
3310.459	858
3313.492	865
3316.521	853
3319.549	845
3322.574	828
3325.597	830
3328.617	831
3331.635	823
3334.65	803
3337.663	807
3340.674	803
3343.682	809
3346.688	803
3349.691	801
3352.692	792
3355.691	794
3358.687	789
3361.681	775
3364.673	773
3367.662	750
3370.649	750
3373.633	744
3376.615	731
3379.595	725
3382.572	719
3385.547	715
3388.52	703
3391.49	690
3394.458	683
3397.424	674
3400.387	670
3403.348	650
3406.307	646
3409.263	641
3412.217	634
3415.168	631
3418.118	622
3421.065	627
3424.009	609
3426.951	599
3429.891	606
3432.829	584
3435.764	580
3438.697	571
3441.628	551
3444.557	532
3447.483	517
3450.407	515
3453.328	505
3456.247	476
3459.164	472
3462.079	455
3464.991	455
3467.902	434
3470.809	422
3473.715	410
3476.618	403
3479.519	395
3482.418	379
3485.315	369
3488.209	361
3491.101	354
3493.99	340
3496.878	328
3499.763	319
3502.646	309
3505.527	292
3508.405	291
3511.281	284
3514.155	274
3517.027	266
3519.897	251
3522.764	244
3525.629	233
3528.492	226
3531.352	209
3534.211	201
3537.067	184
3539.921	176
3542.773	177
3545.622	168
3548.469	159
3551.315	146
3554.157	143
3556.998	136
3559.837	130
3562.673	124
3565.507	125
3568.339	114
3571.169	104
3573.996	99
3576.822	96
3579.645	93
3582.466	89
3585.285	81
3588.101	72
3590.916	67
3593.728	63
3596.538	58
3599.346	51
3602.152	46
3604.956	44
3607.757	38
3610.556	35
3613.354	37
3616.149	30
3618.942	24
3621.732	31
3624.521	19
3627.307	18
3630.092	16
3632.874	19
3635.654	10
3638.432	9
3641.208	5
3643.982	8
3646.753	7
3649.523	2
3652.29	4
3655.055	-5
3657.818	-7
3660.579	-11
3663.338	-11
3666.095	-10
3668.849	-11
3671.602	-15
3674.352	-21
3677.101	-21
3679.847	-29
3682.591	-28
3685.333	-26
3688.073	-34
3690.811	-30
3693.547	-36
3696.281	-38
3699.013	-37
3701.742	-38
3704.47	-42
3707.195	-41
3709.919	-46
3712.64	-43
3715.359	-46
3718.076	-40
3720.792	-48
3723.505	-45
3726.216	-44
3728.925	-46
3731.632	-48
3734.336	-43
3737.039	-48
3739.74	-47
3742.439	-46
3745.136	-46
3747.83	-49
3750.523	-50
3753.213	-50
3755.902	-51
3758.589	-49
3761.273	-53
3763.956	-51
3766.636	-54
3769.315	-53
3771.991	-57
3774.665	-56
3777.338	-55
3780.008	-57
3782.677	-59
3785.343	-59
3788.007	-54
3790.67	-60
3793.33	-59
3795.989	-59
3798.645	-58
3801.299	-59
3803.952	-60
3806.602	-61
3809.251	-61
3811.897	-61
3814.542	-64
3817.184	-61
3819.825	-58
3822.463	-60
3825.1	-60
3827.735	-60
3830.367	-60
3832.998	-64
3835.627	-64
3838.253	-59
3840.878	-66
3843.501	-59
3846.122	-64
3848.741	-63
3851.358	-64
3853.973	-60
3856.586	-62
3859.197	-65
3861.806	-63
3864.414	-61
3867.019	-62
3869.622	-67
3872.224	-62
3874.823	-60
3877.421	-66
3880.016	-59
3882.61	-55
3885.202	-61
3887.792	-57
3890.38	-59
3892.966	-63
3895.55	-63
3898.132	-64
3900.713	-68
3903.291	-68
3905.868	-66
3908.442	-66
3911.015	-68
3913.586	-66
3916.155	-67
3918.722	-69
3921.287	-68
3923.85	-70
3926.411	-69
3928.971	-73
3931.528	-70
3934.084	-72
3936.638	-73
3939.19	-69
3941.74	-69
3944.288	-72
3946.834	-68
3949.378	-71
3951.921	-68
3954.462	-70
3957	-66
3959.537	-69
3962.072	-65
3964.606	-63
3967.137	-67
3969.667	-69
3972.194	-67
3974.72	-64
3977.244	-64
3979.766	-63
3982.286	-62
3984.805	-64
3987.321	-63
3989.836	-62
3992.349	-69
3994.86	-65
3997.369	-68
3999.877	-66
4002.382	-65
4004.886	-65
4007.388	-71
4009.888	-66
4012.386	-67
4014.883	-67
4017.377	-68
4019.87	-70
4022.361	-67
4024.85	-69
4027.338	-68
4029.823	-66
4032.307	-72
4034.789	-68
4037.269	-69
4039.747	-68
4042.224	-69
4044.699	-70
4047.172	-69
4049.643	-66
4052.112	-65
4054.58	-68
4057.046	-68
4059.51	-65
4061.972	-66
4064.432	-69
4066.891	-68
4069.348	-68
4071.803	-69
4074.256	-67
4076.708	-69
4079.158	-69
4081.606	-68
4084.052	-66
4086.497	-70
4088.939	-70
4091.38	-69
4093.819	-67
4096.257	-74
4098.693	-75
4101.127	-76
4103.559	-72
4105.989	-31
4108.418	-28
4110.845	-25
4113.27	-24
4115.694	-15
4118.115	-11
4120.535	-68
4122.954	-70
4125.37	-68
4127.785	-70
4130.198	-66
4132.609	-68
4135.019	-71
4137.427	-72
4139.833	-67
4142.237	-69
