Data from Bsub_water_DIL107_A_3_RamanShift_1.txt Node
Date: Wed Feb 22 12:49:06 IST 2017
User: aro
Spectrometer: QEPB0276
Trigger mode: 0
Integration Time (sec): 5.000000E0
Scans to average: 1
Electric dark correction enabled: true
Nonlinearity correction enabled: false
Boxcar width: 0
XAxis mode: Raman Shifts
Number of Pixels in Spectrum: 1044
>>>>>Begin Spectral Data<<<<<
160.701	-28
166.742	8
172.777	101
178.805	398
184.826	1112
190.841	2288
196.849	3640
202.85	4557
208.845	4768
214.833	4602
220.815	4433
226.789	4335
232.758	4218
238.719	4101
244.674	3947
250.623	3789
256.565	3621
262.5	3445
268.429	3301
274.351	3171
280.267	3064
286.176	2965
292.079	2868
297.975	2774
303.865	2687
309.748	2619
315.625	2572
321.495	2504
327.359	2488
333.217	2473
339.068	2448
344.912	2424
350.751	2420
356.583	2404
362.408	2390
368.227	2393
374.04	2418
379.847	2422
385.647	2438
391.44	2460
397.228	2468
403.009	2475
408.784	2502
414.553	2513
420.315	2492
426.071	2528
431.821	2514
437.565	2498
443.302	2512
449.033	2488
454.758	2483
460.477	2489
466.189	2476
471.896	2484
477.596	2421
483.29	2424
488.978	2428
494.66	2434
500.335	2404
506.005	2343
511.668	2294
517.325	2273
522.977	2225
528.622	2206
534.261	2205
539.894	2165
545.521	2145
551.141	2129
556.756	2122
562.365	2114
567.968	2134
573.565	2111
579.155	2093
584.74	2056
590.319	2048
595.892	2056
601.459	2040
607.02	2027
612.575	1994
618.124	1982
623.667	1962
629.204	1972
634.735	1934
640.261	1923
645.781	1906
651.294	1907
656.802	1887
662.304	1890
667.8	1879
673.29	1882
678.775	1866
684.254	1861
689.726	1850
695.193	1835
700.655	1845
706.11	1845
711.56	1819
717.004	1819
722.442	1785
727.874	1797
733.301	1769
738.722	1770
744.137	1763
749.547	1742
754.951	1742
760.349	1747
765.741	1739
771.128	1756
776.509	1749
781.885	1757
787.254	1735
792.618	1734
797.977	1726
803.33	1703
808.677	1697
814.019	1677
819.355	1665
824.686	1651
830.011	1647
835.33	1643
840.644	1632
845.952	1624
851.255	1611
856.552	1610
861.844	1613
867.13	1598
872.41	1583
877.686	1585
882.955	1574
888.219	1533
893.478	1516
898.731	1478
903.979	1491
909.221	1450
914.458	1443
919.69	1427
924.916	1450
930.136	1439
935.351	1449
940.561	1437
945.766	1416
950.965	1420
956.158	1413
961.347	1401
966.529	1375
971.707	1360
976.879	1341
982.046	1319
987.208	1332
992.364	1320
997.515	1332
1002.66	1350
1007.801	1365
1012.936	1366
1018.066	1376
1023.19	1389
1028.309	1380
1033.423	1368
1038.532	1382
1043.636	1374
1048.734	1355
1053.827	1331
1058.915	1328
1063.998	1319
1069.075	1309
1074.147	1309
1079.214	1336
1084.276	1336
1089.333	1351
1094.385	1355
1099.431	1354
1104.472	1339
1109.509	1354
1114.54	1341
1119.565	1330
1124.586	1302
1129.602	1289
1134.613	1293
1139.618	1279
1144.619	1288
1149.614	1285
1154.604	1303
1159.589	1294
1164.57	1284
1169.545	1309
1174.515	1314
1179.48	1308
1184.44	1290
1189.395	1284
1194.345	1278
1199.29	1276
1204.23	1295
1209.165	1279
1214.095	1288
1219.021	1323
1223.941	1307
1228.856	1317
1233.766	1322
1238.672	1324
1243.572	1323
1248.467	1314
1253.358	1313
1258.244	1299
1263.124	1271
1268	1261
1272.871	1241
1277.737	1215
1282.599	1232
1287.455	1233
1292.306	1231
1297.153	1235
1301.995	1232
1306.832	1249
1311.664	1258
1316.491	1260
1321.314	1241
1326.132	1249
1330.945	1221
1335.753	1187
1340.556	1161
1345.354	1155
1350.148	1133
1354.937	1143
1359.722	1119
1364.501	1140
1369.276	1164
1374.046	1187
1378.811	1198
1383.572	1202
1388.327	1203
1393.079	1206
1397.825	1184
1402.567	1150
1407.304	1137
1412.036	1114
1416.764	1115
1421.487	1106
1426.205	1115
1430.919	1100
1435.628	1122
1440.333	1127
1445.032	1138
1449.727	1142
1454.418	1146
1459.104	1140
1463.785	1120
1468.462	1119
1473.134	1097
1477.802	1102
1482.465	1099
1487.123	1094
1491.777	1096
1496.426	1114
1501.071	1130
1505.711	1146
1510.347	1167
1514.978	1174
1519.604	1196
1524.226	1194
1528.844	1201
1533.457	1222
1538.065	1215
1542.669	1213
1547.269	1219
1551.864	1219
1556.454	1208
1561.041	1230
1565.622	1250
1570.199	1244
1574.772	1260
1579.34	1272
1583.904	1277
1588.464	1287
1593.019	1311
1597.569	1329
1602.115	1347
1606.657	1339
1611.195	1354
1615.728	1368
1620.256	1373
1624.78	1393
1629.3	1425
1633.816	1433
1638.327	1448
1642.834	1469
1647.336	1470
1651.834	1467
1656.328	1492
1660.817	1474
1665.302	1444
1669.783	1429
1674.259	1388
1678.732	1362
1683.199	1308
1687.663	1249
1692.122	1194
1696.577	1176
1701.028	1147
1705.474	1134
1709.917	1130
1714.355	1104
1718.788	1074
1723.218	1055
1727.643	1020
1732.064	1003
1736.481	976
1740.893	952
1745.301	927
1749.705	904
1754.105	865
1758.501	857
1762.893	836
1767.28	819
1771.663	792
1776.042	798
1780.417	802
1784.787	793
1789.154	806
1793.516	817
1797.874	817
1802.228	819
1806.578	835
1810.924	822
1815.266	807
1819.603	797
1823.937	791
1828.266	780
1832.591	766
1836.913	764
1841.23	740
1845.543	744
1849.852	737
1854.156	738
1858.457	734
1862.754	740
1867.047	728
1871.335	749
1875.62	751
1879.9	739
1884.177	756
1888.449	740
1892.718	729
1896.982	725
1901.243	726
1905.499	726
1909.752	727
1914	727
1918.245	735
1922.485	730
1926.722	739
1930.954	758
1935.183	751
1939.408	767
1943.628	764
1947.845	758
1952.058	768
1956.267	764
1960.472	759
1964.673	760
1968.87	742
1973.063	730
1977.252	729
1981.438	725
1985.619	720
1989.797	725
1993.971	713
1998.14	717
2002.306	711
2006.469	722
2010.627	719
2014.781	727
2018.932	721
2023.078	735
2027.221	714
2031.36	696
2035.495	698
2039.627	686
2043.754	695
2047.878	681
2051.998	679
2056.114	676
2060.226	685
2064.334	697
2068.439	690
2072.54	703
2076.637	710
2080.73	709
2084.82	714
2088.906	714
2092.988	721
2097.066	718
2101.14	703
2105.211	700
2109.278	694
2113.342	695
2117.401	699
2121.457	690
2125.509	698
2129.558	690
2133.602	681
2137.643	683
2141.681	688
2145.714	680
2149.744	664
2153.77	670
2157.793	671
2161.812	644
2165.827	644
2169.838	630
2173.846	619
2177.851	621
2181.851	598
2185.848	598
2189.841	595
2193.831	593
2197.817	586
2201.799	582
2205.778	580
2209.753	583
2213.725	572
2217.693	573
2221.657	570
2225.618	572
2229.575	561
2233.529	568
2237.479	556
2241.425	539
2245.368	538
2249.307	526
2253.243	526
2257.175	522
2261.104	515
2265.029	511
2268.95	504
2272.868	478
2276.783	486
2280.694	487
2284.601	472
2288.505	461
2292.405	463
2296.302	468
2300.195	458
2304.085	455
2307.971	451
2311.854	443
2315.734	429
2319.609	429
2323.482	420
2327.351	408
2331.216	402
2335.078	413
2338.937	397
2342.792	404
2346.643	404
2350.492	388
2354.336	393
2358.178	392
2362.015	392
2365.85	397
2369.681	398
2373.508	386
2377.333	388
2381.153	386
2384.971	389
2388.785	383
2392.595	376
2396.402	378
2400.206	375
2404.007	371
2407.804	363
2411.597	365
2415.388	358
2419.174	367
2422.958	363
2426.738	364
2430.515	356
2434.289	364
2438.059	350
2441.825	346
2445.589	341
2449.349	343
2453.106	339
2456.859	344
2460.61	333
2464.356	336
2468.1	324
2471.84	327
2475.577	321
2479.311	318
2483.041	317
2486.768	321
2490.492	324
2494.213	329
2497.93	326
2501.644	318
2505.355	320
2509.062	322
2512.766	332
2516.467	311
2520.165	312
2523.859	313
2527.551	309
2531.239	310
2534.923	309
2538.605	304
2542.283	308
2545.958	306
2549.63	308
2553.299	301
2556.964	289
2560.626	290
2564.285	295
2567.941	292
2571.594	294
2575.243	286
2578.89	288
2582.533	283
2586.173	279
2589.809	287
2593.443	288
2597.073	278
2600.701	267
2604.325	282
2607.946	278
2611.564	269
2615.178	278
2618.79	274
2622.398	271
2626.004	263
2629.606	263
2633.205	258
2636.801	261
2640.394	253
2643.983	257
2647.57	251
2651.153	252
2654.734	241
2658.311	244
2661.885	246
2665.456	236
2669.025	232
2672.589	233
2676.151	239
2679.71	226
2683.266	219
2686.819	227
2690.368	217
2693.915	215
2697.458	213
2700.999	219
2704.536	206
2708.071	201
2711.602	203
2715.13	193
2718.656	193
2722.178	196
2725.697	194
2729.214	198
2732.727	195
2736.237	196
2739.744	201
2743.249	199
2746.75	206
2750.248	202
2753.743	211
2757.236	210
2760.725	215
2764.211	217
2767.695	217
2771.175	212
2774.652	212
2778.127	208
2781.598	210
2785.067	207
2788.532	207
2791.995	199
2795.455	206
2798.911	207
2802.365	206
2805.816	212
2809.264	210
2812.709	214
2816.151	210
2819.59	202
2823.026	209
2826.46	209
2829.89	212
2833.318	208
2836.742	213
2840.164	206
2843.583	220
2846.999	214
2850.412	221
2853.822	224
2857.229	225
2860.634	230
2864.035	235
2867.434	232
2870.83	229
2874.223	236
2877.613	232
2881	235
2884.385	249
2887.766	246
2891.145	241
2894.521	247
2897.894	246
2901.264	246
2904.631	247
2907.996	254
2911.358	244
2914.717	260
2918.073	256
2921.426	254
2924.777	258
2928.124	269
2931.469	276
2934.811	276
2938.15	285
2941.487	290
2944.821	290
2948.152	296
2951.48	301
2954.805	306
2958.128	314
2961.447	320
2964.765	320
2968.079	326
2971.39	337
2974.699	344
2978.005	344
2981.308	355
2984.609	378
2987.907	390
2991.202	395
2994.494	410
2997.784	430
3001.07	433
3004.355	452
3007.636	451
3010.915	459
3014.191	473
3017.464	484
3020.734	489
3024.002	496
3027.267	507
3030.53	514
3033.789	516
3037.046	535
3040.301	549
3043.552	561
3046.801	571
3050.048	582
3053.291	600
3056.532	606
3059.771	634
3063.006	653
3066.239	665
3069.469	679
3072.697	709
3075.922	733
3079.144	756
3082.364	769
3085.581	784
3088.795	802
3092.007	815
3095.216	849
3098.423	851
3101.627	876
3104.828	892
3108.026	917
3111.222	936
3114.416	960
3117.607	975
3120.795	998
3123.98	1034
3127.163	1058
3130.344	1080
3133.521	1098
3136.696	1121
3139.869	1145
3143.039	1160
3146.206	1180
3149.371	1195
3152.533	1209
3155.693	1209
3158.85	1219
3162.005	1229
3165.157	1231
3168.306	1233
3171.453	1245
3174.597	1244
3177.739	1254
3180.878	1262
3184.014	1273
3187.149	1267
3190.28	1253
3193.409	1267
3196.536	1270
3199.659	1278
3202.781	1280
3205.9	1279
3209.016	1277
3212.13	1274
3215.241	1256
3218.35	1275
3221.456	1266
3224.56	1265
3227.661	1237
3230.76	1238
3233.856	1232
3236.95	1200
3240.041	1202
3243.13	1201
3246.216	1199
3249.3	1186
3252.382	1175
3255.46	1175
3258.537	1168
3261.611	1179
3264.682	1171
3267.751	1155
3270.818	1161
3273.882	1149
3276.943	1148
3280.002	1129
3283.059	1129
3286.113	1107
3289.165	1091
3292.214	1082
3295.261	1058
3298.306	1026
3301.348	1022
3304.387	1014
3307.425	995
3310.459	996
3313.492	975
3316.521	968
3319.549	939
3322.574	938
3325.597	932
3328.617	921
3331.635	913
3334.65	903
3337.663	909
3340.674	891
3343.682	894
3346.688	896
3349.691	888
3352.692	883
3355.691	882
3358.687	872
3361.681	862
3364.673	851
3367.662	836
3370.649	824
3373.633	831
3376.615	807
3379.595	800
3382.572	777
3385.547	771
3388.52	772
3391.49	761
3394.458	749
3397.424	736
3400.387	730
3403.348	713
3406.307	713
3409.263	710
3412.217	695
3415.168	692
3418.118	683
3421.065	672
3424.009	665
3426.951	671
3429.891	658
3432.829	627
3435.764	633
3438.697	607
3441.628	587
3444.557	584
3447.483	563
3450.407	571
3453.328	547
3456.247	520
3459.164	511
3462.079	497
3464.991	494
3467.902	472
3470.809	460
3473.715	447
3476.618	431
3479.519	417
3482.418	415
3485.315	399
3488.209	388
3491.101	373
3493.99	356
3496.878	355
3499.763	347
3502.646	334
3505.527	318
3508.405	301
3511.281	296
3514.155	289
3517.027	276
3519.897	268
3522.764	260
3525.629	237
3528.492	228
3531.352	213
3534.211	203
3537.067	189
3539.921	173
3542.773	170
3545.622	160
3548.469	156
3551.315	144
3554.157	139
3556.998	129
3559.837	126
3562.673	114
3565.507	108
3568.339	98
3571.169	92
3573.996	82
3576.822	74
3579.645	76
3582.466	66
3585.285	57
3588.101	54
3590.916	54
3593.728	37
3596.538	40
3599.346	36
3602.152	26
3604.956	25
3607.757	17
3610.556	17
3613.354	10
3616.149	3
3618.942	6
3621.732	-2
3624.521	-7
3627.307	-12
3630.092	-10
3632.874	-17
3635.654	-20
3638.432	-23
3641.208	-24
3643.982	-28
3646.753	-33
3649.523	-29
3652.29	-37
3655.055	-40
3657.818	-48
3660.579	-48
3663.338	-51
3666.095	-53
3668.849	-58
3671.602	-56
3674.352	-58
3677.101	-60
3679.847	-65
3682.591	-62
3685.333	-68
3688.073	-71
3690.811	-73
3693.547	-76
3696.281	-80
3699.013	-78
3701.742	-77
3704.47	-75
3707.195	-83
3709.919	-83
3712.64	-82
3715.359	-84
3718.076	-86
3720.792	-85
3723.505	-85
3726.216	-85
3728.925	-89
3731.632	-90
3734.336	-97
3737.039	-88
3739.74	-93
3742.439	-100
3745.136	-95
3747.83	-98
3750.523	-96
3753.213	-99
3755.902	-100
3758.589	-95
3761.273	-95
3763.956	-96
3766.636	-101
3769.315	-95
3771.991	-103
3774.665	-101
3777.338	-104
3780.008	-103
3782.677	-105
3785.343	-105
3788.007	-105
3790.67	-105
3793.33	-104
3795.989	-100
3798.645	-105
3801.299	-104
3803.952	-108
3806.602	-102
3809.251	-105
3811.897	-106
3814.542	-111
3817.184	-105
3819.825	-105
3822.463	-108
3825.1	-106
3827.735	-108
3830.367	-108
3832.998	-106
3835.627	-110
3838.253	-107
3840.878	-110
3843.501	-110
3846.122	-108
3848.741	-107
3851.358	-107
3853.973	-108
3856.586	-110
3859.197	-109
3861.806	-114
3864.414	-112
3867.019	-111
3869.622	-110
3872.224	-114
3874.823	-105
3877.421	-101
3880.016	-106
3882.61	-98
3885.202	-101
3887.792	-102
3890.38	-107
3892.966	-108
3895.55	-111
3898.132	-111
3900.713	-114
3903.291	-114
3905.868	-108
3908.442	-109
3911.015	-114
3913.586	-112
3916.155	-114
3918.722	-110
3921.287	-111
3923.85	-112
3926.411	-112
3928.971	-111
3931.528	-109
3934.084	-117
3936.638	-114
3939.19	-117
3941.74	-116
3944.288	-119
3946.834	-114
3949.378	-116
3951.921	-113
3954.462	-115
3957	-111
3959.537	-107
3962.072	-114
3964.606	-113
3967.137	-111
3969.667	-114
3972.194	-115
3974.72	-114
3977.244	-115
3979.766	-114
3982.286	-112
3984.805	-112
3987.321	-108
3989.836	-110
3992.349	-111
3994.86	-111
3997.369	-112
3999.877	-113
4002.382	-110
4004.886	-111
4007.388	-114
4009.888	-115
4012.386	-114
4014.883	-113
4017.377	-112
4019.87	-116
4022.361	-110
4024.85	-115
4027.338	-111
4029.823	-112
4032.307	-110
4034.789	-115
4037.269	-109
4039.747	-106
4042.224	-112
4044.699	-118
4047.172	-113
4049.643	-118
4052.112	-118
4054.58	-115
4057.046	-112
4059.51	-113
4061.972	-108
4064.432	-111
4066.891	-111
4069.348	-111
4071.803	-115
4074.256	-113
4076.708	-112
4079.158	-115
4081.606	-112
4084.052	-116
4086.497	-115
4088.939	-114
4091.38	-110
4093.819	-113
4096.257	-114
4098.693	-118
4101.127	-117
4103.559	-116
4105.989	-74
4108.418	-71
4110.845	-66
4113.27	-64
4115.694	-55
4118.115	-45
4120.535	-113
4122.954	-110
4125.37	-110
4127.785	-111
4130.198	-117
4132.609	-111
4135.019	-119
4137.427	-122
4139.833	-118
4142.237	-120
