Data from Bsub_water_DIL107_B_1_RamanShift_1.txt Node
Date: Wed Feb 22 13:16:16 IST 2017
User: aro
Spectrometer: QEPB0276
Trigger mode: 0
Integration Time (sec): 5.000000E0
Scans to average: 1
Electric dark correction enabled: true
Nonlinearity correction enabled: false
Boxcar width: 0
XAxis mode: Raman Shifts
Number of Pixels in Spectrum: 1044
>>>>>Begin Spectral Data<<<<<
160.701	-32
166.742	3
172.777	94
178.805	378
184.826	1062
190.841	2210
196.849	3505
202.85	4376
208.845	4609
214.833	4487
220.815	4307
226.789	4197
232.758	4049
238.719	3918
244.674	3803
250.623	3626
256.565	3498
262.5	3301
268.429	3183
274.351	3065
280.267	2930
286.176	2822
292.079	2725
297.975	2632
303.865	2565
309.748	2504
315.625	2434
321.495	2373
327.359	2320
333.217	2325
339.068	2319
344.912	2295
350.751	2294
356.583	2283
362.408	2293
368.227	2291
374.04	2270
379.847	2284
385.647	2309
391.44	2338
397.228	2345
403.009	2359
408.784	2363
414.553	2390
420.315	2384
426.071	2376
431.821	2396
437.565	2374
443.302	2388
449.033	2369
454.758	2374
460.477	2354
466.189	2356
471.896	2320
477.596	2320
483.29	2336
488.978	2297
494.66	2300
500.335	2245
506.005	2241
511.668	2175
517.325	2159
522.977	2124
528.622	2104
534.261	2080
539.894	2059
545.521	2041
551.141	2038
556.756	2004
562.365	1996
567.968	2003
573.565	1983
579.155	1977
584.74	1947
590.319	1942
595.892	1950
601.459	1913
607.02	1913
612.575	1892
618.124	1881
623.667	1873
629.204	1851
634.735	1828
640.261	1804
645.781	1815
651.294	1805
656.802	1796
662.304	1785
667.8	1775
673.29	1783
678.775	1770
684.254	1775
689.726	1755
695.193	1758
700.655	1729
706.11	1723
711.56	1717
717.004	1703
722.442	1699
727.874	1675
733.301	1687
738.722	1657
744.137	1656
749.547	1645
754.951	1673
760.349	1661
765.741	1655
771.128	1666
776.509	1661
781.885	1627
787.254	1643
792.618	1630
797.977	1620
803.33	1604
808.677	1591
814.019	1586
819.355	1577
824.686	1543
830.011	1539
835.33	1531
840.644	1537
845.952	1521
851.255	1527
856.552	1495
861.844	1509
867.13	1512
872.41	1477
877.686	1489
882.955	1469
888.219	1442
893.478	1413
898.731	1397
903.979	1386
909.221	1358
914.458	1364
919.69	1340
924.916	1354
930.136	1347
935.351	1346
940.561	1332
945.766	1331
950.965	1333
956.158	1322
961.347	1303
966.529	1282
971.707	1268
976.879	1257
982.046	1235
987.208	1226
992.364	1235
997.515	1258
1002.66	1243
1007.801	1251
1012.936	1257
1018.066	1269
1023.19	1282
1028.309	1287
1033.423	1283
1038.532	1275
1043.636	1266
1048.734	1272
1053.827	1242
1058.915	1239
1063.998	1214
1069.075	1222
1074.147	1211
1079.214	1232
1084.276	1225
1089.333	1247
1094.385	1259
1099.431	1253
1104.472	1253
1109.509	1261
1114.54	1237
1119.565	1233
1124.586	1204
1129.602	1209
1134.613	1187
1139.618	1197
1144.619	1190
1149.614	1193
1154.604	1215
1159.589	1207
1164.57	1196
1169.545	1209
1174.515	1208
1179.48	1197
1184.44	1189
1189.395	1193
1194.345	1187
1199.29	1182
1204.23	1196
1209.165	1201
1214.095	1177
1219.021	1204
1223.941	1195
1228.856	1220
1233.766	1223
1238.672	1214
1243.572	1219
1248.467	1228
1253.358	1197
1258.244	1191
1263.124	1174
1268	1147
1272.871	1147
1277.737	1134
1282.599	1131
1287.455	1152
1292.306	1143
1297.153	1141
1301.995	1153
1306.832	1171
1311.664	1170
1316.491	1165
1321.314	1156
1326.132	1154
1330.945	1132
1335.753	1105
1340.556	1091
1345.354	1074
1350.148	1043
1354.937	1047
1359.722	1042
1364.501	1038
1369.276	1071
1374.046	1102
1378.811	1110
1383.572	1114
1388.327	1100
1393.079	1097
1397.825	1084
1402.567	1053
1407.304	1041
1412.036	1031
1416.764	1017
1421.487	1029
1426.205	1010
1430.919	1019
1435.628	1028
1440.333	1038
1445.032	1055
1449.727	1068
1454.418	1060
1459.104	1053
1463.785	1035
1468.462	1033
1473.134	1014
1477.802	1016
1482.465	1011
1487.123	1016
1491.777	1012
1496.426	1031
1501.071	1044
1505.711	1041
1510.347	1070
1514.978	1078
1519.604	1088
1524.226	1115
1528.844	1120
1533.457	1108
1538.065	1106
1542.669	1104
1547.269	1103
1551.864	1102
1556.454	1108
1561.041	1122
1565.622	1142
1570.199	1144
1574.772	1166
1579.34	1184
1583.904	1194
1588.464	1201
1593.019	1212
1597.569	1218
1602.115	1238
1606.657	1260
1611.195	1261
1615.728	1264
1620.256	1291
1624.78	1301
1629.3	1292
1633.816	1321
1638.327	1339
1642.834	1363
1647.336	1372
1651.834	1364
1656.328	1368
1660.817	1363
1665.302	1348
1669.783	1313
1674.259	1297
1678.732	1240
1683.199	1190
1687.663	1142
1692.122	1099
1696.577	1083
1701.028	1041
1705.474	1032
1709.917	1034
1714.355	1010
1718.788	969
1723.218	957
1727.643	926
1732.064	911
1736.481	873
1740.893	863
1745.301	824
1749.705	812
1754.105	788
1758.501	765
1762.893	736
1767.28	735
1771.663	722
1776.042	721
1780.417	717
1784.787	718
1789.154	714
1793.516	721
1797.874	745
1802.228	753
1806.578	744
1810.924	741
1815.266	740
1819.603	724
1823.937	702
1828.266	695
1832.591	688
1836.913	675
1841.23	667
1845.543	654
1849.852	648
1854.156	654
1858.457	652
1862.754	652
1867.047	660
1871.335	659
1875.62	660
1879.9	675
1884.177	662
1888.449	666
1892.718	658
1896.982	656
1901.243	647
1905.499	654
1909.752	637
1914	639
1918.245	655
1922.485	654
1926.722	668
1930.954	663
1935.183	663
1939.408	675
1943.628	682
1947.845	665
1952.058	682
1956.267	682
1960.472	677
1964.673	670
1968.87	659
1973.063	650
1977.252	659
1981.438	646
1985.619	641
1989.797	639
1993.971	636
1998.14	640
2002.306	640
2006.469	639
2010.627	639
2014.781	652
2018.932	634
2023.078	645
2027.221	639
2031.36	638
2035.495	632
2039.627	621
2043.754	618
2047.878	619
2051.998	613
2056.114	614
2060.226	616
2064.334	608
2068.439	625
2072.54	633
2076.637	639
2080.73	631
2084.82	641
2088.906	643
2092.988	638
2097.066	637
2101.14	642
2105.211	637
2109.278	620
2113.342	624
2117.401	637
2121.457	619
2125.509	624
2129.558	622
2133.602	620
2137.643	605
2141.681	623
2145.714	604
2149.744	614
2153.77	607
2157.793	595
2161.812	579
2165.827	584
2169.838	578
2173.846	549
2177.851	545
2181.851	538
2185.848	530
2189.841	538
2193.831	527
2197.817	524
2201.799	522
2205.778	508
2209.753	515
2213.725	523
2217.693	518
2221.657	509
2225.618	515
2229.575	505
2233.529	510
2237.479	498
2241.425	496
2245.368	492
2249.307	473
2253.243	465
2257.175	469
2261.104	473
2265.029	445
2268.95	453
2272.868	434
2276.783	427
2280.694	434
2284.601	427
2288.505	426
2292.405	416
2296.302	424
2300.195	400
2304.085	404
2307.971	398
2311.854	382
2315.734	371
2319.609	375
2323.482	361
2327.351	370
2331.216	359
2335.078	365
2338.937	358
2342.792	344
2346.643	350
2350.492	345
2354.336	356
2358.178	352
2362.015	334
2365.85	352
2369.681	357
2373.508	342
2377.333	345
2381.153	350
2384.971	340
2388.785	338
2392.595	341
2396.402	334
2400.206	331
2404.007	329
2407.804	326
2411.597	319
2415.388	320
2419.174	321
2422.958	322
2426.738	315
2430.515	317
2434.289	309
2438.059	309
2441.825	319
2445.589	307
2449.349	300
2453.106	290
2456.859	302
2460.61	284
2464.356	293
2468.1	297
2471.84	281
2475.577	286
2479.311	281
2483.041	281
2486.768	286
2490.492	282
2494.213	290
2497.93	284
2501.644	287
2505.355	284
2509.062	279
2512.766	277
2516.467	290
2520.165	273
2523.859	277
2527.551	281
2531.239	270
2534.923	270
2538.605	268
2542.283	262
2545.958	268
2549.63	270
2553.299	254
2556.964	259
2560.626	253
2564.285	256
2567.941	257
2571.594	256
2575.243	242
2578.89	247
2582.533	251
2586.173	252
2589.809	238
2593.443	233
2597.073	240
2600.701	234
2604.325	247
2607.946	233
2611.564	240
2615.178	233
2618.79	236
2622.398	232
2626.004	226
2629.606	218
2633.205	232
2636.801	224
2640.394	220
2643.983	218
2647.57	210
2651.153	217
2654.734	211
2658.311	215
2661.885	216
2665.456	207
2669.025	206
2672.589	195
2676.151	200
2679.71	192
2683.266	205
2686.819	193
2690.368	188
2693.915	192
2697.458	192
2700.999	185
2704.536	179
2708.071	183
2711.602	181
2715.13	168
2718.656	171
2722.178	165
2725.697	175
2729.214	172
2732.727	171
2736.237	176
2739.744	172
2743.249	176
2746.75	175
2750.248	167
2753.743	183
2757.236	183
2760.725	182
2764.211	183
2767.695	178
2771.175	182
2774.652	186
2778.127	186
2781.598	181
2785.067	179
2788.532	181
2791.995	179
2795.455	181
2798.911	180
2802.365	184
2805.816	183
2809.264	190
2812.709	187
2816.151	192
2819.59	184
2823.026	183
2826.46	183
2829.89	178
2833.318	187
2836.742	183
2840.164	187
2843.583	191
2846.999	192
2850.412	197
2853.822	192
2857.229	190
2860.634	204
2864.035	202
2867.434	213
2870.83	205
2874.223	202
2877.613	218
2881	230
2884.385	214
2887.766	221
2891.145	226
2894.521	218
2897.894	214
2901.264	216
2904.631	222
2907.996	227
2911.358	234
2914.717	236
2918.073	239
2921.426	239
2924.777	250
2928.124	248
2931.469	254
2934.811	261
2938.15	259
2941.487	273
2944.821	271
2948.152	275
2951.48	284
2954.805	282
2958.128	292
2961.447	299
2964.765	299
2968.079	307
2971.39	317
2974.699	326
2978.005	335
2981.308	344
2984.609	362
2987.907	364
2991.202	376
2994.494	386
2997.784	405
3001.07	403
3004.355	419
3007.636	438
3010.915	446
3014.191	461
3017.464	460
3020.734	481
3024.002	485
3027.267	489
3030.53	499
3033.789	495
3037.046	515
3040.301	521
3043.552	535
3046.801	548
3050.048	554
3053.291	569
3056.532	595
3059.771	612
3063.006	625
3066.239	646
3069.469	673
3072.697	689
3075.922	708
3079.144	726
3082.364	747
3085.581	763
3088.795	772
3092.007	791
3095.216	815
3098.423	841
3101.627	863
3104.828	869
3108.026	907
3111.222	910
3114.416	934
3117.607	956
3120.795	975
3123.98	1002
3127.163	1024
3130.344	1052
3133.521	1070
3136.696	1102
3139.869	1118
3143.039	1133
3146.206	1160
3149.371	1173
3152.533	1168
3155.693	1184
3158.85	1202
3162.005	1207
3165.157	1211
3168.306	1220
3171.453	1207
3174.597	1232
3177.739	1232
3180.878	1248
3184.014	1233
3187.149	1232
3190.28	1256
3193.409	1240
3196.536	1255
3199.659	1257
3202.781	1255
3205.9	1253
3209.016	1258
3212.13	1252
3215.241	1247
3218.35	1248
3221.456	1224
3224.56	1224
3227.661	1217
3230.76	1199
3233.856	1204
3236.95	1178
3240.041	1166
3243.13	1163
3246.216	1170
3249.3	1141
3252.382	1161
3255.46	1150
3258.537	1140
3261.611	1136
3264.682	1117
3267.751	1133
3270.818	1131
3273.882	1116
3276.943	1120
3280.002	1104
3283.059	1082
3286.113	1087
3289.165	1062
3292.214	1061
3295.261	1045
3298.306	1020
3301.348	998
3304.387	974
3307.425	972
3310.459	959
3313.492	949
3316.521	941
3319.549	921
3322.574	910
3325.597	896
3328.617	898
3331.635	898
3334.65	875
3337.663	880
3340.674	883
3343.682	866
3346.688	867
3349.691	879
3352.692	868
3355.691	848
3358.687	841
3361.681	833
3364.673	825
3367.662	821
3370.649	815
3373.633	777
3376.615	779
3379.595	779
3382.572	765
3385.547	745
3388.52	742
3391.49	742
3394.458	728
3397.424	718
3400.387	709
3403.348	697
3406.307	689
3409.263	674
3412.217	677
3415.168	655
3418.118	653
3421.065	665
3424.009	650
3426.951	639
3429.891	627
3432.829	613
3435.764	606
3438.697	602
3441.628	567
3444.557	572
3447.483	554
3450.407	539
3453.328	529
3456.247	514
3459.164	496
3462.079	479
3464.991	464
3467.902	443
3470.809	437
3473.715	429
3476.618	422
3479.519	407
3482.418	394
3485.315	383
3488.209	370
3491.101	365
3493.99	356
3496.878	341
3499.763	335
3502.646	326
3505.527	310
3508.405	296
3511.281	286
3514.155	279
3517.027	272
3519.897	260
3522.764	245
3525.629	231
3528.492	219
3531.352	202
3534.211	191
3537.067	189
3539.921	182
3542.773	169
3545.622	154
3548.469	142
3551.315	142
3554.157	126
3556.998	121
3559.837	114
3562.673	104
3565.507	104
3568.339	96
3571.169	87
3573.996	83
3576.822	71
3579.645	64
3582.466	72
3585.285	64
3588.101	54
3590.916	42
3593.728	40
3596.538	40
3599.346	36
3602.152	28
3604.956	24
3607.757	17
3610.556	15
3613.354	17
3616.149	11
3618.942	6
3621.732	3
3624.521	-5
3627.307	-7
3630.092	-7
3632.874	-11
3635.654	-17
3638.432	-20
3641.208	-27
3643.982	-26
3646.753	-24
3649.523	-29
3652.29	-37
3655.055	-38
3657.818	-43
3660.579	-46
3663.338	-45
3666.095	-47
3668.849	-51
3671.602	-46
3674.352	-59
3677.101	-56
3679.847	-59
3682.591	-61
3685.333	-66
3688.073	-68
3690.811	-68
3693.547	-71
3696.281	-78
3699.013	-75
3701.742	-76
3704.47	-75
3707.195	-77
3709.919	-79
3712.64	-79
3715.359	-78
3718.076	-80
3720.792	-82
3723.505	-84
3726.216	-81
3728.925	-84
3731.632	-88
3734.336	-89
3737.039	-88
3739.74	-91
3742.439	-95
3745.136	-94
3747.83	-91
3750.523	-89
3753.213	-89
3755.902	-97
3758.589	-91
3761.273	-93
3763.956	-93
3766.636	-94
3769.315	-91
3771.991	-93
3774.665	-98
3777.338	-99
3780.008	-100
3782.677	-97
3785.343	-99
3788.007	-98
3790.67	-99
3793.33	-103
3795.989	-97
3798.645	-101
3801.299	-98
3803.952	-103
3806.602	-100
3809.251	-97
3811.897	-102
3814.542	-101
3817.184	-100
3819.825	-98
3822.463	-102
3825.1	-102
3827.735	-105
3830.367	-104
3832.998	-104
3835.627	-107
3838.253	-103
3840.878	-104
3843.501	-104
3846.122	-103
3848.741	-103
3851.358	-102
3853.973	-106
3856.586	-105
3859.197	-106
3861.806	-106
3864.414	-108
3867.019	-106
3869.622	-106
3872.224	-106
3874.823	-101
3877.421	-98
3880.016	-99
3882.61	-94
3885.202	-94
3887.792	-98
3890.38	-101
3892.966	-104
3895.55	-103
3898.132	-105
3900.713	-106
3903.291	-105
3905.868	-109
3908.442	-105
3911.015	-108
3913.586	-107
3916.155	-109
3918.722	-107
3921.287	-107
3923.85	-107
3926.411	-104
3928.971	-105
3931.528	-104
3934.084	-105
3936.638	-106
3939.19	-108
3941.74	-109
3944.288	-113
3946.834	-107
3949.378	-111
3951.921	-109
3954.462	-108
3957	-110
3959.537	-107
3962.072	-107
3964.606	-111
3967.137	-106
3969.667	-107
3972.194	-108
3974.72	-105
3977.244	-109
3979.766	-105
3982.286	-105
3984.805	-107
3987.321	-106
3989.836	-109
3992.349	-106
3994.86	-107
3997.369	-106
3999.877	-109
4002.382	-102
4004.886	-103
4007.388	-106
4009.888	-108
4012.386	-105
4014.883	-106
4017.377	-102
4019.87	-110
4022.361	-110
4024.85	-110
4027.338	-107
4029.823	-110
4032.307	-107
4034.789	-109
4037.269	-102
4039.747	-101
4042.224	-108
4044.699	-110
4047.172	-108
4049.643	-111
4052.112	-111
4054.58	-109
4057.046	-107
4059.51	-111
4061.972	-107
4064.432	-111
4066.891	-107
4069.348	-107
4071.803	-111
4074.256	-109
4076.708	-108
4079.158	-110
4081.606	-105
4084.052	-111
4086.497	-106
4088.939	-106
4091.38	-106
4093.819	-109
4096.257	-109
4098.693	-112
4101.127	-110
4103.559	-109
4105.989	-69
4108.418	-66
4110.845	-67
4113.27	-57
4115.694	-54
4118.115	-40
4120.535	-111
4122.954	-108
4125.37	-111
4127.785	-109
4130.198	-114
4132.609	-109
4135.019	-110
4137.427	-111
4139.833	-112
4142.237	-110
