Data from 1000CFU3_A_RamanShift_1.txt Node
Date: Mon Jan 23 14:15:37 IST 2017
User: aro
Spectrometer: QEPB0276
Trigger mode: 0
Integration Time (sec): 5.000000E0
Scans to average: 1
Electric dark correction enabled: true
Nonlinearity correction enabled: false
Boxcar width: 0
XAxis mode: Raman Shifts
Number of Pixels in Spectrum: 1044
>>>>>Begin Spectral Data<<<<<
160.701	-32
166.742	1
172.777	94
178.805	385
184.826	1078
190.841	2207
196.849	3496
202.85	4286
208.845	4506
214.833	4386
220.815	4187
226.789	4090
232.758	3958
238.719	3872
244.674	3692
250.623	3554
256.565	3397
262.5	3260
268.429	3099
274.351	2985
280.267	2853
286.176	2756
292.079	2678
297.975	2578
303.865	2514
309.748	2427
315.625	2373
321.495	2331
327.359	2296
333.217	2264
339.068	2257
344.912	2249
350.751	2233
356.583	2242
362.408	2218
368.227	2218
374.04	2242
379.847	2219
385.647	2244
391.44	2254
397.228	2263
403.009	2274
408.784	2300
414.553	2280
420.315	2307
426.071	2303
431.821	2304
437.565	2274
443.302	2304
449.033	2268
454.758	2299
460.477	2269
466.189	2265
471.896	2249
477.596	2259
483.29	2247
488.978	2216
494.66	2216
500.335	2203
506.005	2140
511.668	2134
517.325	2090
522.977	2059
528.622	2032
534.261	2008
539.894	2017
545.521	1982
551.141	1979
556.756	1977
562.365	1939
567.968	1946
573.565	1937
579.155	1923
584.74	1897
590.319	1901
595.892	1878
601.459	1877
607.02	1856
612.575	1844
618.124	1840
623.667	1819
629.204	1795
634.735	1803
640.261	1770
645.781	1753
651.294	1764
656.802	1752
662.304	1737
667.8	1710
673.29	1732
678.775	1719
684.254	1732
689.726	1701
695.193	1698
700.655	1693
706.11	1674
711.56	1671
717.004	1657
722.442	1640
727.874	1639
733.301	1612
738.722	1622
744.137	1617
749.547	1608
754.951	1624
760.349	1618
765.741	1613
771.128	1606
776.509	1602
781.885	1608
787.254	1606
792.618	1595
797.977	1584
803.33	1573
808.677	1566
814.019	1537
819.355	1546
824.686	1531
830.011	1525
835.33	1500
840.644	1507
845.952	1493
851.255	1484
856.552	1498
861.844	1494
867.13	1469
872.41	1461
877.686	1453
882.955	1451
888.219	1412
893.478	1391
898.731	1373
903.979	1358
909.221	1359
914.458	1333
919.69	1336
924.916	1326
930.136	1327
935.351	1335
940.561	1345
945.766	1326
950.965	1314
956.158	1303
961.347	1277
966.529	1271
971.707	1247
976.879	1247
982.046	1233
987.208	1229
992.364	1230
997.515	1237
1002.66	1231
1007.801	1256
1012.936	1262
1018.066	1273
1023.19	1289
1028.309	1283
1033.423	1285
1038.532	1284
1043.636	1274
1048.734	1247
1053.827	1253
1058.915	1224
1063.998	1217
1069.075	1227
1074.147	1222
1079.214	1236
1084.276	1238
1089.333	1254
1094.385	1245
1099.431	1260
1104.472	1281
1109.509	1261
1114.54	1246
1119.565	1239
1124.586	1228
1129.602	1216
1134.613	1193
1139.618	1205
1144.619	1196
1149.614	1206
1154.604	1224
1159.589	1207
1164.57	1215
1169.545	1215
1174.515	1232
1179.48	1219
1184.44	1218
1189.395	1210
1194.345	1200
1199.29	1208
1204.23	1206
1209.165	1190
1214.095	1217
1219.021	1234
1223.941	1223
1228.856	1239
1233.766	1242
1238.672	1263
1243.572	1242
1248.467	1250
1253.358	1237
1258.244	1214
1263.124	1217
1268	1167
1272.871	1161
1277.737	1151
1282.599	1144
1287.455	1153
1292.306	1169
1297.153	1162
1301.995	1185
1306.832	1183
1311.664	1176
1316.491	1188
1321.314	1201
1326.132	1198
1330.945	1174
1335.753	1150
1340.556	1158
1345.354	1149
1350.148	1137
1354.937	1124
1359.722	1120
1364.501	1092
1369.276	1082
1374.046	1081
1378.811	1069
1383.572	1071
1388.327	1076
1393.079	1067
1397.825	1079
1402.567	1041
1407.304	1047
1412.036	1032
1416.764	1038
1421.487	1047
1426.205	1042
1430.919	1048
1435.628	1066
1440.333	1079
1445.032	1108
1449.727	1117
1454.418	1109
1459.104	1108
1463.785	1104
1468.462	1084
1473.134	1087
1477.802	1070
1482.465	1079
1487.123	1064
1491.777	1071
1496.426	1073
1501.071	1092
1505.711	1087
1510.347	1101
1514.978	1116
1519.604	1123
1524.226	1112
1528.844	1121
1533.457	1117
1538.065	1110
1542.669	1097
1547.269	1114
1551.864	1115
1556.454	1107
1561.041	1140
1565.622	1128
1570.199	1156
1574.772	1165
1579.34	1190
1583.904	1197
1588.464	1221
1593.019	1242
1597.569	1246
1602.115	1258
1606.657	1272
1611.195	1289
1615.728	1306
1620.256	1317
1624.78	1330
1629.3	1340
1633.816	1360
1638.327	1384
1642.834	1403
1647.336	1418
1651.834	1422
1656.328	1422
1660.817	1405
1665.302	1398
1669.783	1363
1674.259	1315
1678.732	1304
1683.199	1264
1687.663	1225
1692.122	1193
1696.577	1131
1701.028	1077
1705.474	1048
1709.917	1008
1714.355	991
1718.788	981
1723.218	968
1727.643	955
1732.064	941
1736.481	906
1740.893	896
1745.301	860
1749.705	851
1754.105	823
1758.501	819
1762.893	808
1767.28	795
1771.663	777
1776.042	779
1780.417	794
1784.787	790
1789.154	794
1793.516	794
1797.874	788
1802.228	779
1806.578	765
1810.924	746
1815.266	742
1819.603	724
1823.937	725
1828.266	712
1832.591	707
1836.913	708
1841.23	707
1845.543	717
1849.852	712
1854.156	712
1858.457	708
1862.754	722
1867.047	714
1871.335	726
1875.62	736
1879.9	736
1884.177	727
1888.449	734
1892.718	725
1896.982	732
1901.243	718
1905.499	727
1909.752	726
1914	723
1918.245	723
1922.485	706
1926.722	715
1930.954	717
1935.183	731
1939.408	724
1943.628	734
1947.845	719
1952.058	711
1956.267	721
1960.472	704
1964.673	693
1968.87	690
1973.063	687
1977.252	685
1981.438	681
1985.619	678
1989.797	665
1993.971	681
1998.14	683
2002.306	688
2006.469	696
2010.627	703
2014.781	706
2018.932	694
2023.078	687
2027.221	689
2031.36	694
2035.495	674
2039.627	661
2043.754	674
2047.878	672
2051.998	674
2056.114	679
2060.226	667
2064.334	681
2068.439	678
2072.54	691
2076.637	697
2080.73	701
2084.82	699
2088.906	690
2092.988	700
2097.066	686
2101.14	682
2105.211	695
2109.278	693
2113.342	665
2117.401	669
2121.457	653
2125.509	674
2129.558	648
2133.602	652
2137.643	651
2141.681	670
2145.714	648
2149.744	636
2153.77	639
2157.793	643
2161.812	630
2165.827	617
2169.838	609
2173.846	609
2177.851	602
2181.851	585
2185.848	588
2189.841	588
2193.831	577
2197.817	563
2201.799	572
2205.778	571
2209.753	578
2213.725	570
2217.693	566
2221.657	566
2225.618	560
2229.575	557
2233.529	548
2237.479	555
2241.425	556
2245.368	547
2249.307	528
2253.243	520
2257.175	515
2261.104	497
2265.029	502
2268.95	482
2272.868	498
2276.783	488
2280.694	482
2284.601	479
2288.505	470
2292.405	461
2296.302	459
2300.195	451
2304.085	448
2307.971	445
2311.854	437
2315.734	425
2319.609	424
2323.482	423
2327.351	408
2331.216	408
2335.078	414
2338.937	396
2342.792	398
2346.643	389
2350.492	394
2354.336	392
2358.178	404
2362.015	399
2365.85	400
2369.681	405
2373.508	397
2377.333	398
2381.153	398
2384.971	401
2388.785	393
2392.595	395
2396.402	385
2400.206	384
2404.007	384
2407.804	387
2411.597	373
2415.388	380
2419.174	387
2422.958	380
2426.738	379
2430.515	384
2434.289	381
2438.059	369
2441.825	378
2445.589	366
2449.349	360
2453.106	361
2456.859	361
2460.61	358
2464.356	346
2468.1	359
2471.84	346
2475.577	352
2479.311	351
2483.041	346
2486.768	356
2490.492	352
2494.213	355
2497.93	343
2501.644	354
2505.355	348
2509.062	338
2512.766	345
2516.467	348
2520.165	349
2523.859	339
2527.551	342
2531.239	337
2534.923	334
2538.605	331
2542.283	327
2545.958	323
2549.63	327
2553.299	326
2556.964	311
2560.626	319
2564.285	313
2567.941	309
2571.594	320
2575.243	309
2578.89	311
2582.533	313
2586.173	302
2589.809	295
2593.443	299
2597.073	299
2600.701	285
2604.325	299
2607.946	291
2611.564	293
2615.178	288
2618.79	294
2622.398	292
2626.004	283
2629.606	283
2633.205	283
2636.801	281
2640.394	262
2643.983	260
2647.57	270
2651.153	264
2654.734	258
2658.311	268
2661.885	254
2665.456	255
2669.025	261
2672.589	249
2676.151	255
2679.71	250
2683.266	247
2686.819	244
2690.368	242
2693.915	246
2697.458	244
2700.999	236
2704.536	235
2708.071	235
2711.602	226
2715.13	223
2718.656	226
2722.178	239
2725.697	234
2729.214	233
2732.727	229
2736.237	232
2739.744	223
2743.249	232
2746.75	234
2750.248	227
2753.743	239
2757.236	224
2760.725	228
2764.211	218
2767.695	219
2771.175	219
2774.652	223
2778.127	214
2781.598	219
2785.067	217
2788.532	211
2791.995	214
2795.455	219
2798.911	222
2802.365	219
2805.816	230
2809.264	227
2812.709	220
2816.151	224
2819.59	224
2823.026	221
2826.46	218
2829.89	228
2833.318	222
2836.742	221
2840.164	224
2843.583	217
2846.999	233
2850.412	229
2853.822	234
2857.229	236
2860.634	246
2864.035	239
2867.434	250
2870.83	243
2874.223	253
2877.613	246
2881	248
2884.385	251
2887.766	251
2891.145	249
2894.521	250
2897.894	252
2901.264	258
2904.631	260
2907.996	261
2911.358	260
2914.717	263
2918.073	259
2921.426	276
2924.777	272
2928.124	274
2931.469	278
2934.811	286
2938.15	295
2941.487	300
2944.821	293
2948.152	296
2951.48	305
2954.805	313
2958.128	315
2961.447	315
2964.765	332
2968.079	334
2971.39	332
2974.699	345
2978.005	352
2981.308	352
2984.609	358
2987.907	378
2991.202	385
2994.494	393
2997.784	405
3001.07	414
3004.355	429
3007.636	437
3010.915	444
3014.191	448
3017.464	453
3020.734	457
3024.002	470
3027.267	481
3030.53	482
3033.789	490
3037.046	511
3040.301	521
3043.552	531
3046.801	540
3050.048	548
3053.291	554
3056.532	563
3059.771	601
3063.006	618
3066.239	639
3069.469	660
3072.697	667
3075.922	695
3079.144	716
3082.364	731
3085.581	746
3088.795	757
3092.007	772
3095.216	785
3098.423	821
3101.627	826
3104.828	850
3108.026	855
3111.222	884
3114.416	886
3117.607	925
3120.795	950
3123.98	956
3127.163	983
3130.344	1003
3133.521	1041
3136.696	1040
3139.869	1046
3143.039	1082
3146.206	1092
3149.371	1103
3152.533	1121
3155.693	1120
3158.85	1128
3162.005	1143
3165.157	1165
3168.306	1151
3171.453	1164
3174.597	1171
3177.739	1164
3180.878	1173
3184.014	1177
3187.149	1164
3190.28	1165
3193.409	1188
3196.536	1193
3199.659	1191
3202.781	1196
3205.9	1205
3209.016	1185
3212.13	1194
3215.241	1197
3218.35	1158
3221.456	1166
3224.56	1156
3227.661	1145
3230.76	1129
3233.856	1127
3236.95	1116
3240.041	1105
3243.13	1092
3246.216	1082
3249.3	1072
3252.382	1084
3255.46	1059
3258.537	1068
3261.611	1063
3264.682	1060
3267.751	1046
3270.818	1060
3273.882	1043
3276.943	1050
3280.002	1031
3283.059	1015
3286.113	1007
3289.165	981
3292.214	988
3295.261	964
3298.306	945
3301.348	922
3304.387	917
3307.425	900
3310.459	886
3313.492	891
3316.521	879
3319.549	862
3322.574	863
3325.597	843
3328.617	850
3331.635	850
3334.65	838
3337.663	824
3340.674	823
3343.682	818
3346.688	816
3349.691	824
3352.692	812
3355.691	809
3358.687	818
3361.681	801
3364.673	780
3367.662	774
3370.649	755
3373.633	764
3376.615	738
3379.595	724
3382.572	712
3385.547	721
3388.52	705
3391.49	707
3394.458	692
3397.424	665
3400.387	664
3403.348	657
3406.307	661
3409.263	654
3412.217	633
3415.168	638
3418.118	620
3421.065	615
3424.009	609
3426.951	600
3429.891	590
3432.829	581
3435.764	580
3438.697	563
3441.628	538
3444.557	527
3447.483	508
3450.407	498
3453.328	480
3456.247	466
3459.164	461
3462.079	446
3464.991	426
3467.902	419
3470.809	405
3473.715	399
3476.618	387
3479.519	371
3482.418	356
3485.315	352
3488.209	349
3491.101	332
3493.99	322
3496.878	310
3499.763	315
3502.646	294
3505.527	285
3508.405	275
3511.281	263
3514.155	250
3517.027	243
3519.897	230
3522.764	214
3525.629	203
3528.492	188
3531.352	185
3534.211	180
3537.067	164
3539.921	152
3542.773	146
3545.622	131
3548.469	126
3551.315	116
3554.157	111
3556.998	107
3559.837	93
3562.673	89
3565.507	84
3568.339	78
3571.169	72
3573.996	69
3576.822	66
3579.645	63
3582.466	49
3585.285	43
3588.101	42
3590.916	42
3593.728	29
3596.538	27
3599.346	22
3602.152	18
3604.956	19
3607.757	11
3610.556	0
3613.354	4
3616.149	1
3618.942	-12
3621.732	-10
3624.521	-12
3627.307	-17
3630.092	-21
3632.874	-23
3635.654	-27
3638.432	-23
3641.208	-24
3643.982	-33
3646.753	-36
3649.523	-37
3652.29	-41
3655.055	-44
3657.818	-47
3660.579	-50
3663.338	-51
3666.095	-55
3668.849	-53
3671.602	-60
3674.352	-60
3677.101	-61
3679.847	-64
3682.591	-67
3685.333	-67
3688.073	-67
3690.811	-70
3693.547	-72
3696.281	-75
3699.013	-76
3701.742	-78
3704.47	-78
3707.195	-80
3709.919	-78
3712.64	-77
3715.359	-80
3718.076	-81
3720.792	-88
3723.505	-83
3726.216	-83
3728.925	-82
3731.632	-85
3734.336	-89
3737.039	-90
3739.74	-89
3742.439	-94
3745.136	-92
3747.83	-88
3750.523	-89
3753.213	-90
3755.902	-90
3758.589	-93
3761.273	-92
3763.956	-93
3766.636	-90
3769.315	-97
3771.991	-95
3774.665	-94
3777.338	-92
3780.008	-97
3782.677	-99
3785.343	-98
3788.007	-98
3790.67	-98
3793.33	-95
3795.989	-98
3798.645	-92
3801.299	-94
3803.952	-100
3806.602	-101
3809.251	-97
3811.897	-99
3814.542	-101
3817.184	-98
3819.825	-105
3822.463	-103
3825.1	-100
3827.735	-105
3830.367	-101
3832.998	-107
3835.627	-102
3838.253	-98
3840.878	-100
3843.501	-102
3846.122	-104
3848.741	-110
3851.358	-105
3853.973	-107
3856.586	-102
3859.197	-102
3861.806	-100
3864.414	-105
3867.019	-105
3869.622	-106
3872.224	-101
3874.823	-103
3877.421	-96
3880.016	-99
3882.61	-99
3885.202	-97
3887.792	-100
3890.38	-104
3892.966	-104
3895.55	-102
3898.132	-104
3900.713	-104
3903.291	-104
3905.868	-105
3908.442	-107
3911.015	-108
3913.586	-111
3916.155	-107
3918.722	-111
3921.287	-104
3923.85	-104
3926.411	-107
3928.971	-108
3931.528	-110
3934.084	-105
3936.638	-110
3939.19	-109
3941.74	-107
3944.288	-107
3946.834	-109
3949.378	-112
3951.921	-114
3954.462	-112
3957	-112
3959.537	-110
3962.072	-110
3964.606	-109
3967.137	-105
3969.667	-104
3972.194	-105
3974.72	-109
3977.244	-107
3979.766	-106
3982.286	-107
3984.805	-107
3987.321	-109
3989.836	-105
3992.349	-110
3994.86	-106
3997.369	-106
3999.877	-104
4002.382	-105
4004.886	-103
4007.388	-105
4009.888	-103
4012.386	-105
4014.883	-106
4017.377	-112
4019.87	-107
4022.361	-109
4024.85	-111
4027.338	-106
4029.823	-106
4032.307	-106
4034.789	-107
4037.269	-107
4039.747	-109
4042.224	-110
4044.699	-108
4047.172	-108
4049.643	-109
4052.112	-113
4054.58	-110
4057.046	-110
4059.51	-108
4061.972	-110
4064.432	-109
4066.891	-106
4069.348	-106
4071.803	-108
4074.256	-102
4076.708	-103
4079.158	-107
4081.606	-109
4084.052	-113
4086.497	-108
4088.939	-111
4091.38	-109
4093.819	-109
4096.257	-113
4098.693	-111
4101.127	-111
4103.559	-113
4105.989	-78
4108.418	-71
4110.845	-70
4113.27	-64
4115.694	-58
4118.115	-46
4120.535	-103
4122.954	-105
4125.37	-108
4127.785	-108
4130.198	-108
4132.609	-107
4135.019	-112
4137.427	-112
4139.833	-112
4142.237	-112
