Data from 171017-reg-ec10_RamanShift_0.txt Node
Date: Tue Oct 17 12:31:35 IDT 2017
User: aro
Spectrometer: QEPB0276
Trigger mode: 0
Integration Time (sec): 5.000000E0
Scans to average: 1
Electric dark correction enabled: true
Nonlinearity correction enabled: false
Boxcar width: 0
XAxis mode: Raman Shifts
Number of Pixels in Spectrum: 1044
>>>>>Begin Spectral Data<<<<<
160.701	1
166.742	7
172.777	13
178.805	43
184.826	113
190.841	254
196.849	439
202.85	607
208.845	667
214.833	680
220.815	696
226.789	715
232.758	732
238.719	754
244.674	767
250.623	775
256.565	772
262.5	768
268.429	760
274.351	773
280.267	773
286.176	781
292.079	787
297.975	795
303.865	798
309.748	793
315.625	794
321.495	789
327.359	792
333.217	796
339.068	781
344.912	781
350.751	790
356.583	786
362.408	780
368.227	785
374.04	785
379.847	783
385.647	798
391.44	781
397.228	791
403.009	796
408.784	791
414.553	805
420.315	846
426.071	853
431.821	836
437.565	800
443.302	793
449.033	787
454.758	785
460.477	796
466.189	787
471.896	780
477.596	779
483.29	771
488.978	778
494.66	775
500.335	745
506.005	733
511.668	745
517.325	761
522.977	815
528.622	840
534.261	827
539.894	825
545.521	814
551.141	808
556.756	800
562.365	794
567.968	792
573.565	775
579.155	788
584.74	787
590.319	771
595.892	763
601.459	779
607.02	753
612.575	750
618.124	759
623.667	755
629.204	755
634.735	767
640.261	774
645.781	778
651.294	790
656.802	796
662.304	774
667.8	780
673.29	781
678.775	778
684.254	794
689.726	780
695.193	787
700.655	789
706.11	775
711.56	786
717.004	780
722.442	787
727.874	790
733.301	789
738.722	787
744.137	788
749.547	786
754.951	797
760.349	796
765.741	799
771.128	805
776.509	816
781.885	813
787.254	817
792.618	810
797.977	820
803.33	821
808.677	808
814.019	807
819.355	809
824.686	813
830.011	821
835.33	818
840.644	822
845.952	827
851.255	834
856.552	826
861.844	849
867.13	844
872.41	836
877.686	852
882.955	837
888.219	842
893.478	840
898.731	836
903.979	822
909.221	843
914.458	845
919.69	856
924.916	854
930.136	864
935.351	876
940.561	898
945.766	913
950.965	896
956.158	909
961.347	894
966.529	857
971.707	877
976.879	868
982.046	865
987.208	876
992.364	871
997.515	868
1002.66	874
1007.801	876
1012.936	894
1018.066	899
1023.19	909
1028.309	906
1033.423	915
1038.532	906
1043.636	903
1048.734	904
1053.827	890
1058.915	890
1063.998	880
1069.075	883
1074.147	886
1079.214	880
1084.276	901
1089.333	918
1094.385	922
1099.431	925
1104.472	921
1109.509	921
1114.54	914
1119.565	915
1124.586	910
1129.602	903
1134.613	888
1139.618	899
1144.619	897
1149.614	900
1154.604	906
1159.589	898
1164.57	925
1169.545	932
1174.515	939
1179.48	921
1184.44	933
1189.395	928
1194.345	914
1199.29	925
1204.23	911
1209.165	922
1214.095	933
1219.021	951
1223.941	962
1228.856	969
1233.766	971
1238.672	979
1243.572	963
1248.467	963
1253.358	959
1258.244	947
1263.124	944
1268	935
1272.871	914
1277.737	928
1282.599	909
1287.455	937
1292.306	928
1297.153	943
1301.995	948
1306.832	971
1311.664	971
1316.491	984
1321.314	984
1326.132	975
1330.945	984
1335.753	984
1340.556	980
1345.354	982
1350.148	973
1354.937	960
1359.722	934
1364.501	904
1369.276	915
1374.046	899
1378.811	887
1383.572	882
1388.327	866
1393.079	879
1397.825	883
1402.567	886
1407.304	892
1412.036	905
1416.764	899
1421.487	909
1426.205	924
1430.919	923
1435.628	940
1440.333	950
1445.032	972
1449.727	983
1454.418	991
1459.104	986
1463.785	987
1468.462	989
1473.134	979
1477.802	975
1482.465	974
1487.123	970
1491.777	979
1496.426	967
1501.071	976
1505.711	987
1510.347	967
1514.978	983
1519.604	958
1524.226	951
1528.844	941
1533.457	930
1538.065	930
1542.669	929
1547.269	914
1551.864	921
1556.454	918
1561.041	916
1565.622	928
1570.199	927
1574.772	923
1579.34	950
1583.904	952
1588.464	963
1593.019	958
1597.569	958
1602.115	946
1606.657	949
1611.195	942
1615.728	940
1620.256	920
1624.78	921
1629.3	929
1633.816	939
1638.327	951
1642.834	955
1647.336	967
1651.834	977
1656.328	989
1660.817	1008
1665.302	1001
1669.783	1006
1674.259	1002
1678.732	1011
1683.199	1022
1687.663	1008
1692.122	1000
1696.577	971
1701.028	948
1705.474	929
1709.917	897
1714.355	891
1718.788	886
1723.218	906
1727.643	917
1732.064	932
1736.481	917
1740.893	913
1745.301	907
1749.705	898
1754.105	885
1758.501	874
1762.893	881
1767.28	862
1771.663	873
1776.042	887
1780.417	896
1784.787	912
1789.154	924
1793.516	920
1797.874	884
1802.228	874
1806.578	853
1810.924	849
1815.266	825
1819.603	832
1823.937	847
1828.266	845
1832.591	846
1836.913	856
1841.23	855
1845.543	876
1849.852	872
1854.156	896
1858.457	893
1862.754	910
1867.047	916
1871.335	931
1875.62	942
1879.9	943
1884.177	953
1888.449	958
1892.718	960
1896.982	950
1901.243	959
1905.499	956
1909.752	962
1914	955
1918.245	979
1922.485	974
1926.722	972
1930.954	974
1935.183	970
1939.408	976
1943.628	956
1947.845	945
1952.058	926
1956.267	917
1960.472	905
1964.673	882
1968.87	879
1973.063	860
1977.252	869
1981.438	867
1985.619	851
1989.797	862
1993.971	864
1998.14	870
2002.306	874
2006.469	884
2010.627	891
2014.781	891
2018.932	889
2023.078	894
2027.221	904
2031.36	884
2035.495	893
2039.627	887
2043.754	874
2047.878	890
2051.998	875
2056.114	892
2060.226	911
2064.334	902
2068.439	908
2072.54	920
2076.637	940
2080.73	939
2084.82	933
2088.906	940
2092.988	944
2097.066	925
2101.14	922
2105.211	914
2109.278	899
2113.342	897
2117.401	878
2121.457	876
2125.509	882
2129.558	877
2133.602	874
2137.643	882
2141.681	880
2145.714	882
2149.744	884
2153.77	878
2157.793	872
2161.812	868
2165.827	871
2169.838	864
2173.846	870
2177.851	855
2181.851	855
2185.848	856
2189.841	855
2193.831	846
2197.817	840
2201.799	846
2205.778	860
2209.753	857
2213.725	878
2217.693	874
2221.657	886
2225.618	885
2229.575	885
2233.529	879
2237.479	874
2241.425	880
2245.368	881
2249.307	861
2253.243	870
2257.175	854
2261.104	877
2265.029	851
2268.95	841
2272.868	859
2276.783	847
2280.694	847
2284.601	843
2288.505	828
2292.405	824
2296.302	840
2300.195	825
2304.085	831
2307.971	828
2311.854	819
2315.734	827
2319.609	805
2323.482	812
2327.351	795
2331.216	803
2335.078	808
2338.937	809
2342.792	817
2346.643	812
2350.492	828
2354.336	829
2358.178	835
2362.015	845
2365.85	849
2369.681	870
2373.508	861
2377.333	883
2381.153	881
2384.971	871
2388.785	873
2392.595	887
2396.402	883
2400.206	889
2404.007	893
2407.804	889
2411.597	897
2415.388	901
2419.174	892
2422.958	898
2426.738	903
2430.515	911
2434.289	913
2438.059	907
2441.825	905
2445.589	903
2449.349	911
2453.106	910
2456.859	902
2460.61	904
2464.356	902
2468.1	900
2471.84	909
2475.577	911
2479.311	907
2483.041	913
2486.768	918
2490.492	929
2494.213	917
2497.93	934
2501.644	933
2505.355	938
2509.062	934
2512.766	951
2516.467	958
2520.165	939
2523.859	949
2527.551	944
2531.239	933
2534.923	952
2538.605	947
2542.283	956
2545.958	953
2549.63	937
2553.299	952
2556.964	961
2560.626	953
2564.285	961
2567.941	933
2571.594	936
2575.243	924
2578.89	934
2582.533	927
2586.173	928
2589.809	922
2593.443	913
2597.073	914
2600.701	900
2604.325	891
2607.946	887
2611.564	898
2615.178	897
2618.79	896
2622.398	894
2626.004	876
2629.606	888
2633.205	871
2636.801	881
2640.394	877
2643.983	866
2647.57	871
2651.153	854
2654.734	859
2658.311	851
2661.885	857
2665.456	850
2669.025	843
2672.589	853
2676.151	844
2679.71	840
2683.266	843
2686.819	846
2690.368	836
2693.915	836
2697.458	835
2700.999	833
2704.536	832
2708.071	810
2711.602	815
2715.13	813
2718.656	817
2722.178	809
2725.697	827
2729.214	809
2732.727	820
2736.237	823
2739.744	828
2743.249	831
2746.75	834
2750.248	831
2753.743	814
2757.236	813
2760.725	794
2764.211	771
2767.695	771
2771.175	763
2774.652	750
2778.127	742
2781.598	745
2785.067	746
2788.532	754
2791.995	772
2795.455	784
2798.911	779
2802.365	792
2805.816	795
2809.264	801
2812.709	804
2816.151	792
2819.59	805
2823.026	797
2826.46	800
2829.89	795
2833.318	794
2836.742	800
2840.164	802
2843.583	789
2846.999	791
2850.412	790
2853.822	767
2857.229	782
2860.634	776
2864.035	789
2867.434	789
2870.83	772
2874.223	763
2877.613	755
2881	763
2884.385	758
2887.766	743
2891.145	739
2894.521	719
2897.894	720
2901.264	708
2904.631	713
2907.996	710
2911.358	694
2914.717	701
2918.073	693
2921.426	683
2924.777	689
2928.124	692
2931.469	688
2934.811	698
2938.15	691
2941.487	685
2944.821	699
2948.152	681
2951.48	672
2954.805	667
2958.128	667
2961.447	667
2964.765	661
2968.079	661
2971.39	666
2974.699	651
2978.005	667
2981.308	657
2984.609	648
2987.907	653
2991.202	650
2994.494	653
2997.784	631
3001.07	628
3004.355	625
3007.636	625
3010.915	605
3014.191	612
3017.464	587
3020.734	585
3024.002	585
3027.267	567
3030.53	568
3033.789	563
3037.046	552
3040.301	570
3043.552	568
3046.801	568
3050.048	563
3053.291	575
3056.532	565
3059.771	570
3063.006	570
3066.239	578
3069.469	581
3072.697	589
3075.922	588
3079.144	583
3082.364	572
3085.581	582
3088.795	582
3092.007	577
3095.216	577
3098.423	568
3101.627	563
3104.828	567
3108.026	556
3111.222	562
3114.416	560
3117.607	559
3120.795	557
3123.98	549
3127.163	543
3130.344	547
3133.521	544
3136.696	548
3139.869	537
3143.039	538
3146.206	538
3149.371	522
3152.533	525
3155.693	504
3158.85	520
3162.005	500
3165.157	492
3168.306	474
3171.453	478
3174.597	474
3177.739	450
3180.878	454
3184.014	449
3187.149	440
3190.28	435
3193.409	428
3196.536	429
3199.659	425
3202.781	426
3205.9	435
3209.016	429
3212.13	420
3215.241	423
3218.35	401
3221.456	405
3224.56	401
3227.661	403
3230.76	393
3233.856	386
3236.95	385
3240.041	371
3243.13	379
3246.216	372
3249.3	369
3252.382	370
3255.46	364
3258.537	363
3261.611	353
3264.682	349
3267.751	350
3270.818	345
3273.882	351
3276.943	340
3280.002	336
3283.059	344
3286.113	324
3289.165	323
3292.214	323
3295.261	315
3298.306	312
3301.348	308
3304.387	297
3307.425	310
3310.459	302
3313.492	293
3316.521	295
3319.549	291
3322.574	289
3325.597	291
3328.617	288
3331.635	287
3334.65	280
3337.663	296
3340.674	288
3343.682	292
3346.688	288
3349.691	290
3352.692	285
3355.691	289
3358.687	285
3361.681	281
3364.673	278
3367.662	285
3370.649	276
3373.633	269
3376.615	271
3379.595	265
3382.572	266
3385.547	259
3388.52	262
3391.49	253
3394.458	252
3397.424	253
3400.387	251
3403.348	250
3406.307	248
3409.263	233
3412.217	244
3415.168	238
3418.118	234
3421.065	229
3424.009	233
3426.951	232
3429.891	238
3432.829	224
3435.764	230
3438.697	216
3441.628	213
3444.557	208
3447.483	204
3450.407	200
3453.328	206
3456.247	196
3459.164	195
3462.079	192
3464.991	187
3467.902	186
3470.809	181
3473.715	183
3476.618	174
3479.519	171
3482.418	171
3485.315	173
3488.209	166
3491.101	166
3493.99	170
3496.878	162
3499.763	157
3502.646	155
3505.527	158
3508.405	152
3511.281	150
3514.155	152
3517.027	147
3519.897	142
3522.764	144
3525.629	132
3528.492	130
3531.352	133
3534.211	128
3537.067	125
3539.921	127
3542.773	125
3545.622	117
3548.469	109
3551.315	116
3554.157	112
3556.998	113
3559.837	113
3562.673	105
3565.507	110
3568.339	109
3571.169	104
3573.996	98
3576.822	96
3579.645	96
3582.466	94
3585.285	94
3588.101	93
3590.916	90
3593.728	87
3596.538	83
3599.346	78
3602.152	81
3604.956	76
3607.757	77
3610.556	80
3613.354	72
3616.149	76
3618.942	71
3621.732	71
3624.521	66
3627.307	74
3630.092	69
3632.874	65
3635.654	70
3638.432	69
3641.208	64
3643.982	67
3646.753	65
3649.523	64
3652.29	61
3655.055	64
3657.818	63
3660.579	65
3663.338	54
3666.095	58
3668.849	62
3671.602	62
3674.352	62
3677.101	64
3679.847	60
3682.591	57
3685.333	61
3688.073	54
3690.811	61
3693.547	56
3696.281	60
3699.013	60
3701.742	58
3704.47	57
3707.195	59
3709.919	61
3712.64	57
3715.359	58
3718.076	60
3720.792	55
3723.505	60
3726.216	56
3728.925	50
3731.632	50
3734.336	53
3737.039	51
3739.74	48
3742.439	43
3745.136	51
3747.83	49
3750.523	49
3753.213	48
3755.902	51
3758.589	46
3761.273	50
3763.956	47
3766.636	46
3769.315	42
3771.991	40
3774.665	43
3777.338	44
3780.008	44
3782.677	46
3785.343	38
3788.007	43
3790.67	32
3793.33	39
3795.989	37
3798.645	35
3801.299	38
3803.952	37
3806.602	33
3809.251	36
3811.897	36
3814.542	34
3817.184	34
3819.825	36
3822.463	35
3825.1	35
3827.735	34
3830.367	29
3832.998	23
3835.627	30
3838.253	28
3840.878	25
3843.501	25
3846.122	26
3848.741	25
3851.358	22
3853.973	22
3856.586	24
3859.197	22
3861.806	20
3864.414	17
3867.019	17
3869.622	18
3872.224	19
3874.823	19
3877.421	16
3880.016	20
3882.61	15
3885.202	17
3887.792	15
3890.38	12
3892.966	11
3895.55	6
3898.132	7
3900.713	2
3903.291	7
3905.868	8
3908.442	8
3911.015	7
3913.586	8
3916.155	4
3918.722	0
3921.287	5
3923.85	4
3926.411	4
3928.971	4
3931.528	6
3934.084	3
3936.638	2
3939.19	1
3941.74	4
3944.288	2
3946.834	2
3949.378	5
3951.921	-4
3954.462	-1
3957	-3
3959.537	1
3962.072	3
3964.606	-2
3967.137	-2
3969.667	-1
3972.194	-1
3974.72	-2
3977.244	-3
3979.766	-6
3982.286	-5
3984.805	-1
3987.321	-3
3989.836	-3
3992.349	-5
3994.86	-7
3997.369	-1
3999.877	-8
4002.382	-7
4004.886	-4
4007.388	-11
4009.888	-8
4012.386	-6
4014.883	-5
4017.377	-10
4019.87	-3
4022.361	-6
4024.85	-10
4027.338	-8
4029.823	-9
4032.307	-3
4034.789	-7
4037.269	-8
4039.747	-8
4042.224	-7
4044.699	-7
4047.172	-5
4049.643	-8
4052.112	-9
4054.58	-5
4057.046	-9
4059.51	-6
4061.972	-8
4064.432	-8
4066.891	-11
4069.348	-8
4071.803	-8
4074.256	-14
4076.708	-12
4079.158	-9
4081.606	-12
4084.052	-10
4086.497	-11
4088.939	-8
4091.38	-10
4093.819	-11
4096.257	-14
4098.693	-15
4101.127	-15
4103.559	-12
4105.989	-6
4108.418	-2
4110.845	-7
4113.27	-6
4115.694	-3
4118.115	0
4120.535	-12
4122.954	-11
4125.37	-12
4127.785	-12
4130.198	-10
4132.609	-13
4135.019	-14
4137.427	-16
4139.833	-17
4142.237	-17
