Data from 2018-2-14_conc=4_n=8_RamanShift_04.txt Node
Date: Wed Feb 14 13:54:25 IST 2018
User: aro
Spectrometer: QEPB0276
Trigger mode: 0
Integration Time (sec): 3.000000E1
Scans to average: 1
Electric dark correction enabled: true
Nonlinearity correction enabled: false
Boxcar width: 0
XAxis mode: Raman Shifts
Number of Pixels in Spectrum: 1044
>>>>>Begin Spectral Data<<<<<
160.701	-136
166.742	36
172.777	536
178.805	2068
184.826	5673
190.841	11865
196.849	19001
202.85	24147
208.845	25785
214.833	25579
220.815	25053
226.789	24988
232.758	24808
238.719	24626
244.674	24322
250.623	23836
256.565	23368
262.5	22896
268.429	22459
274.351	22087
280.267	21803
286.176	21613
292.079	21454
297.975	21222
303.865	20998
309.748	20860
315.625	20806
321.495	20664
327.359	20616
333.217	20584
339.068	20556
344.912	20548
350.751	20534
356.583	20487
362.408	20450
368.227	20485
374.04	20542
379.847	20538
385.647	20666
391.44	20696
397.228	20782
403.009	20861
408.784	20935
414.553	21013
420.315	21055
426.071	21067
431.821	21061
437.565	20989
443.302	21003
449.033	20973
454.758	20948
460.477	20878
466.189	20779
471.896	20748
477.596	20667
483.29	20665
488.978	20624
494.66	20539
500.335	20369
506.005	20119
511.668	19894
517.325	19588
522.977	19377
528.622	19250
534.261	19088
539.894	18989
545.521	18863
551.141	18747
556.756	18756
562.365	18603
567.968	18613
573.565	18479
579.155	18425
584.74	18364
590.319	18283
595.892	18167
601.459	18202
607.02	18070
612.575	17923
618.124	17877
623.667	17673
629.204	17643
634.735	17505
640.261	17498
645.781	17416
651.294	17344
656.802	17407
662.304	17319
667.8	17233
673.29	17196
678.775	17115
684.254	17109
689.726	17053
695.193	16999
700.655	16915
706.11	16823
711.56	16744
717.004	16652
722.442	16548
727.874	16458
733.301	16489
738.722	16403
744.137	16356
749.547	16359
754.951	16344
760.349	16375
765.741	16350
771.128	16370
776.509	16368
781.885	16344
787.254	16378
792.618	16268
797.977	16155
803.33	16033
808.677	15894
814.019	15876
819.355	15772
824.686	15668
830.011	15598
835.33	15613
840.644	15645
845.952	15604
851.255	15671
856.552	15678
861.844	15660
867.13	15553
872.41	15473
877.686	15365
882.955	15315
888.219	15203
893.478	15009
898.731	14811
903.979	14664
909.221	14532
914.458	14443
919.69	14485
924.916	14493
930.136	14519
935.351	14571
940.561	14606
945.766	14522
950.965	14450
956.158	14362
961.347	14159
966.529	14038
971.707	13769
976.879	13653
982.046	13547
987.208	13477
992.364	13486
997.515	13560
1002.66	13692
1007.801	13792
1012.936	13932
1018.066	13871
1023.19	13930
1028.309	13931
1033.423	13827
1038.532	13788
1043.636	13655
1048.734	13518
1053.827	13336
1058.915	13217
1063.998	13090
1069.075	13055
1074.147	13063
1079.214	13093
1084.276	13180
1089.333	13250
1094.385	13281
1099.431	13317
1104.472	13302
1109.509	13264
1114.54	13092
1119.565	12906
1124.586	12743
1129.602	12628
1134.613	12515
1139.618	12412
1144.619	12423
1149.614	12386
1154.604	12468
1159.589	12466
1164.57	12502
1169.545	12508
1174.515	12521
1179.48	12424
1184.44	12293
1189.395	12214
1194.345	12141
1199.29	12126
1204.23	12107
1209.165	12099
1214.095	12154
1219.021	12236
1223.941	12247
1228.856	12384
1233.766	12359
1238.672	12393
1243.572	12388
1248.467	12272
1253.358	12156
1258.244	11996
1263.124	11819
1268	11592
1272.871	11466
1277.737	11361
1282.599	11303
1287.455	11288
1292.306	11299
1297.153	11375
1301.995	11346
1306.832	11431
1311.664	11451
1316.491	11399
1321.314	11321
1326.132	11108
1330.945	10904
1335.753	10678
1340.556	10379
1345.354	10203
1350.148	10074
1354.937	9972
1359.722	9935
1364.501	9911
1369.276	9957
1374.046	10040
1378.811	10098
1383.572	10198
1388.327	10212
1393.079	10231
1397.825	10101
1402.567	9983
1407.304	9904
1412.036	9846
1416.764	9742
1421.487	9716
1426.205	9667
1430.919	9604
1435.628	9663
1440.333	9640
1445.032	9648
1449.727	9701
1454.418	9694
1459.104	9562
1463.785	9454
1468.462	9185
1473.134	8945
1477.802	8773
1482.465	8673
1487.123	8492
1491.777	8459
1496.426	8482
1501.071	8525
1505.711	8584
1510.347	8756
1514.978	8875
1519.604	8960
1524.226	9022
1528.844	9080
1533.457	9057
1538.065	9026
1542.669	8984
1547.269	8920
1551.864	8870
1556.454	8829
1561.041	8844
1565.622	8850
1570.199	8871
1574.772	8936
1579.34	9025
1583.904	9081
1588.464	9100
1593.019	9153
1597.569	9147
1602.115	9053
1606.657	9032
1611.195	8969
1615.728	8877
1620.256	8869
1624.78	8858
1629.3	8842
1633.816	8852
1638.327	8905
1642.834	8972
1647.336	8965
1651.834	8971
1656.328	8936
1660.817	8901
1665.302	8783
1669.783	8562
1674.259	8394
1678.732	8174
1683.199	7865
1687.663	7586
1692.122	7364
1696.577	7192
1701.028	7151
1705.474	7140
1709.917	7133
1714.355	7116
1718.788	7079
1723.218	7000
1727.643	6886
1732.064	6766
1736.481	6598
1740.893	6478
1745.301	6309
1749.705	6126
1754.105	5952
1758.501	5804
1762.893	5645
1767.28	5544
1771.663	5374
1776.042	5278
1780.417	5227
1784.787	5190
1789.154	5206
1793.516	5285
1797.874	5336
1802.228	5451
1806.578	5481
1810.924	5449
1815.266	5432
1819.603	5369
1823.937	5316
1828.266	5206
1832.591	5162
1836.913	5082
1841.23	5042
1845.543	4997
1849.852	5013
1854.156	4982
1858.457	4999
1862.754	4940
1867.047	4956
1871.335	4928
1875.62	4906
1879.9	4899
1884.177	4867
1888.449	4783
1892.718	4772
1896.982	4701
1901.243	4668
1905.499	4598
1909.752	4578
1914	4580
1918.245	4582
1922.485	4591
1926.722	4630
1930.954	4694
1935.183	4715
1939.408	4753
1943.628	4783
1947.845	4791
1952.058	4794
1956.267	4723
1960.472	4701
1964.673	4647
1968.87	4556
1973.063	4462
1977.252	4472
1981.438	4412
1985.619	4342
1989.797	4307
1993.971	4299
1998.14	4264
2002.306	4224
2006.469	4250
2010.627	4225
2014.781	4184
2018.932	4150
2023.078	4142
2027.221	4066
2031.36	4011
2035.495	3919
2039.627	3876
2043.754	3818
2047.878	3795
2051.998	3756
2056.114	3738
2060.226	3726
2064.334	3742
2068.439	3756
2072.54	3793
2076.637	3790
2080.73	3798
2084.82	3817
2088.906	3818
2092.988	3816
2097.066	3801
2101.14	3787
2105.211	3745
2109.278	3715
2113.342	3714
2117.401	3694
2121.457	3675
2125.509	3646
2129.558	3646
2133.602	3622
2137.643	3580
2141.681	3554
2145.714	3545
2149.744	3539
2153.77	3517
2157.793	3471
2161.812	3392
2165.827	3372
2169.838	3349
2173.846	3281
2177.851	3242
2181.851	3175
2185.848	3112
2189.841	3113
2193.831	3060
2197.817	3045
2201.799	3015
2205.778	3005
2209.753	2995
2213.725	2990
2217.693	2986
2221.657	2981
2225.618	2968
2229.575	2948
2233.529	2925
2237.479	2889
2241.425	2845
2245.368	2821
2249.307	2761
2253.243	2724
2257.175	2683
2261.104	2641
2265.029	2597
2268.95	2599
2272.868	2580
2276.783	2536
2280.694	2481
2284.601	2479
2288.505	2457
2292.405	2410
2296.302	2427
2300.195	2357
2304.085	2362
2307.971	2323
2311.854	2275
2315.734	2265
2319.609	2210
2323.482	2200
2327.351	2158
2331.216	2153
2335.078	2159
2338.937	2121
2342.792	2114
2346.643	2098
2350.492	2089
2354.336	2099
2358.178	2127
2362.015	2138
2365.85	2130
2369.681	2131
2373.508	2125
2377.333	2123
2381.153	2105
2384.971	2095
2388.785	2092
2392.595	2086
2396.402	2057
2400.206	2028
2404.007	2036
2407.804	2003
2411.597	1991
2415.388	1993
2419.174	1971
2422.958	1955
2426.738	1922
2430.515	1922
2434.289	1903
2438.059	1893
2441.825	1886
2445.589	1848
2449.349	1833
2453.106	1803
2456.859	1780
2460.61	1765
2464.356	1733
2468.1	1693
2471.84	1693
2475.577	1666
2479.311	1664
2483.041	1670
2486.768	1628
2490.492	1622
2494.213	1626
2497.93	1638
2501.644	1617
2505.355	1602
2509.062	1583
2512.766	1569
2516.467	1572
2520.165	1562
2523.859	1569
2527.551	1515
2531.239	1520
2534.923	1485
2538.605	1498
2542.283	1499
2545.958	1488
2549.63	1486
2553.299	1460
2556.964	1453
2560.626	1439
2564.285	1457
2567.941	1454
2571.594	1448
2575.243	1418
2578.89	1414
2582.533	1387
2586.173	1408
2589.809	1377
2593.443	1356
2597.073	1350
2600.701	1341
2604.325	1347
2607.946	1307
2611.564	1293
2615.178	1301
2618.79	1288
2622.398	1292
2626.004	1260
2629.606	1244
2633.205	1227
2636.801	1220
2640.394	1198
2643.983	1170
2647.57	1162
2651.153	1134
2654.734	1104
2658.311	1085
2661.885	1095
2665.456	1065
2669.025	1059
2672.589	1042
2676.151	1035
2679.71	1019
2683.266	1007
2686.819	995
2690.368	957
2693.915	949
2697.458	913
2700.999	883
2704.536	878
2708.071	863
2711.602	843
2715.13	800
2718.656	806
2722.178	781
2725.697	768
2729.214	741
2732.727	746
2736.237	743
2739.744	723
2743.249	730
2746.75	723
2750.248	738
2753.743	735
2757.236	755
2760.725	762
2764.211	759
2767.695	768
2771.175	752
2774.652	761
2778.127	761
2781.598	753
2785.067	732
2788.532	740
2791.995	727
2795.455	733
2798.911	750
2802.365	757
2805.816	732
2809.264	753
2812.709	737
2816.151	752
2819.59	753
2823.026	743
2826.46	751
2829.89	753
2833.318	755
2836.742	775
2840.164	767
2843.583	788
2846.999	806
2850.412	823
2853.822	811
2857.229	832
2860.634	854
2864.035	855
2867.434	872
2870.83	893
2874.223	908
2877.613	945
2881	945
2884.385	957
2887.766	968
2891.145	958
2894.521	957
2897.894	967
2901.264	962
2904.631	978
2907.996	966
2911.358	989
2914.717	999
2918.073	997
2921.426	1028
2924.777	1016
2928.124	1050
2931.469	1075
2934.811	1093
2938.15	1137
2941.487	1139
2944.821	1132
2948.152	1145
2951.48	1123
2954.805	1115
2958.128	1114
2961.447	1100
2964.765	1072
2968.079	1087
2971.39	1076
2974.699	1141
2978.005	1123
2981.308	1147
2984.609	1185
2987.907	1196
2991.202	1221
2994.494	1227
2997.784	1264
3001.07	1285
3004.355	1310
3007.636	1335
3010.915	1347
3014.191	1357
3017.464	1381
3020.734	1414
3024.002	1399
3027.267	1435
3030.53	1421
3033.789	1458
3037.046	1479
3040.301	1497
3043.552	1525
3046.801	1553
3050.048	1599
3053.291	1632
3056.532	1702
3059.771	1738
3063.006	1813
3066.239	1877
3069.469	1919
3072.697	1970
3075.922	2005
3079.144	2068
3082.364	2124
3085.581	2186
3088.795	2207
3092.007	2272
3095.216	2337
3098.423	2377
3101.627	2449
3104.828	2473
3108.026	2527
3111.222	2584
3114.416	2674
3117.607	2707
3120.795	2773
3123.98	2848
3127.163	2905
3130.344	2979
3133.521	3061
3136.696	3147
3139.869	3203
3143.039	3276
3146.206	3291
3149.371	3376
3152.533	3384
3155.693	3419
3158.85	3415
3162.005	3455
3165.157	3486
3168.306	3480
3171.453	3467
3174.597	3520
3177.739	3488
3180.878	3505
3184.014	3510
3187.149	3491
3190.28	3516
3193.409	3539
3196.536	3521
3199.659	3528
3202.781	3523
3205.9	3527
3209.016	3524
3212.13	3527
3215.241	3492
3218.35	3434
3221.456	3421
3224.56	3355
3227.661	3332
3230.76	3339
3233.856	3270
3236.95	3215
3240.041	3190
3243.13	3176
3246.216	3166
3249.3	3133
3252.382	3125
3255.46	3114
3258.537	3064
3261.611	3107
3264.682	3085
3267.751	3099
3270.818	3120
3273.882	3112
3276.943	3061
3280.002	3054
3283.059	3024
3286.113	2997
3289.165	2951
3292.214	2923
3295.261	2856
3298.306	2791
3301.348	2776
3304.387	2736
3307.425	2669
3310.459	2644
3313.492	2612
3316.521	2603
3319.549	2541
3322.574	2523
3325.597	2525
3328.617	2487
3331.635	2485
3334.65	2458
3337.663	2451
3340.674	2431
3343.682	2435
3346.688	2436
3349.691	2418
3352.692	2403
3355.691	2389
3358.687	2384
3361.681	2330
3364.673	2296
3367.662	2267
3370.649	2237
3373.633	2205
3376.615	2169
3379.595	2138
3382.572	2112
3385.547	2090
3388.52	2042
3391.49	2011
3394.458	1986
3397.424	1958
3400.387	1929
3403.348	1908
3406.307	1874
3409.263	1877
3412.217	1848
3415.168	1831
3418.118	1815
3421.065	1769
3424.009	1750
3426.951	1728
3429.891	1685
3432.829	1631
3435.764	1605
3438.697	1572
3441.628	1512
3444.557	1496
3447.483	1421
3450.407	1393
3453.328	1334
3456.247	1296
3459.164	1238
3462.079	1205
3464.991	1138
3467.902	1111
3470.809	1063
3473.715	1010
3476.618	971
3479.519	952
3482.418	889
3485.315	894
3488.209	844
3491.101	818
3493.99	780
3496.878	749
3499.763	711
3502.646	697
3505.527	644
3508.405	630
3511.281	586
3514.155	545
3517.027	524
3519.897	486
3522.764	444
3525.629	397
3528.492	367
3531.352	330
3534.211	295
3537.067	260
3539.921	251
3542.773	203
3545.622	175
3548.469	152
3551.315	129
3554.157	103
3556.998	75
3559.837	53
3562.673	25
3565.507	9
3568.339	-10
3571.169	-19
3573.996	-31
3576.822	-49
3579.645	-66
3582.466	-83
3585.285	-110
3588.101	-125
3590.916	-134
3593.728	-156
3596.538	-179
3599.346	-183
3602.152	-207
3604.956	-223
3607.757	-237
3610.556	-249
3613.354	-256
3616.149	-276
3618.942	-286
3621.732	-287
3624.521	-316
3627.307	-321
3630.092	-320
3632.874	-330
3635.654	-336
3638.432	-343
3641.208	-350
3643.982	-369
3646.753	-363
3649.523	-380
3652.29	-380
3655.055	-393
3657.818	-397
3660.579	-405
3663.338	-424
3666.095	-428
3668.849	-433
3671.602	-442
3674.352	-453
3677.101	-447
3679.847	-464
3682.591	-472
3685.333	-476
3688.073	-478
3690.811	-483
3693.547	-484
3696.281	-498
3699.013	-497
3701.742	-494
3704.47	-502
3707.195	-517
3709.919	-518
3712.64	-517
3715.359	-519
3718.076	-525
3720.792	-517
3723.505	-524
3726.216	-531
3728.925	-529
3731.632	-539
3734.336	-540
3737.039	-542
3739.74	-546
3742.439	-543
3745.136	-549
3747.83	-554
3750.523	-554
3753.213	-555
3755.902	-557
3758.589	-561
3761.273	-554
3763.956	-560
3766.636	-564
3769.315	-559
3771.991	-565
3774.665	-572
3777.338	-565
3780.008	-565
3782.677	-573
3785.343	-568
3788.007	-571
3790.67	-571
3793.33	-574
3795.989	-576
3798.645	-576
3801.299	-580
3803.952	-584
3806.602	-585
3809.251	-585
3811.897	-585
3814.542	-586
3817.184	-587
3819.825	-581
3822.463	-582
3825.1	-583
3827.735	-581
3830.367	-588
3832.998	-592
3835.627	-593
3838.253	-591
3840.878	-593
3843.501	-587
3846.122	-586
3848.741	-589
3851.358	-589
3853.973	-589
3856.586	-591
3859.197	-595
3861.806	-597
3864.414	-587
3867.019	-590
3869.622	-593
3872.224	-592
3874.823	-573
3877.421	-563
3880.016	-552
3882.61	-531
3885.202	-531
3887.792	-543
3890.38	-568
3892.966	-583
3895.55	-593
3898.132	-602
3900.713	-608
3903.291	-602
3905.868	-602
3908.442	-605
3911.015	-603
3913.586	-598
3916.155	-596
3918.722	-603
3921.287	-605
3923.85	-610
3926.411	-607
3928.971	-610
3931.528	-610
3934.084	-613
3936.638	-609
3939.19	-609
3941.74	-608
3944.288	-608
3946.834	-597
3949.378	-607
3951.921	-606
3954.462	-609
3957	-604
3959.537	-605
3962.072	-605
3964.606	-600
3967.137	-604
3969.667	-606
3972.194	-599
3974.72	-608
3977.244	-593
3979.766	-595
3982.286	-596
3984.805	-598
3987.321	-595
3989.836	-600
3992.349	-587
3994.86	-599
3997.369	-602
3999.877	-590
4002.382	-592
4004.886	-589
4007.388	-587
4009.888	-590
4012.386	-591
4014.883	-589
4017.377	-593
4019.87	-589
4022.361	-588
4024.85	-590
4027.338	-594
4029.823	-596
4032.307	-597
4034.789	-592
4037.269	-593
4039.747	-599
4042.224	-599
4044.699	-601
4047.172	-595
4049.643	-594
4052.112	-599
4054.58	-598
4057.046	-597
4059.51	-598
4061.972	-599
4064.432	-603
4066.891	-595
4069.348	-591
4071.803	-591
4074.256	-592
4076.708	-594
4079.158	-597
4081.606	-598
4084.052	-600
4086.497	-600
4088.939	-596
4091.38	-595
4093.819	-590
4096.257	-626
4098.693	-622
4101.127	-626
4103.559	-622
4105.989	-358
4108.418	-334
4110.845	-318
4113.27	-287
4115.694	-256
4118.115	-218
4120.535	-591
4122.954	-595
4125.37	-592
4127.785	-600
4130.198	-592
4132.609	-599
4135.019	-624
4137.427	-629
4139.833	-629
4142.237	-622
