Data from 2018-2-14_conc=4_n=3_RamanShift_06.txt Node
Date: Wed Feb 14 13:35:25 IST 2018
User: aro
Spectrometer: QEPB0276
Trigger mode: 0
Integration Time (sec): 3.000000E1
Scans to average: 1
Electric dark correction enabled: true
Nonlinearity correction enabled: false
Boxcar width: 0
XAxis mode: Raman Shifts
Number of Pixels in Spectrum: 1044
>>>>>Begin Spectral Data<<<<<
160.701	-155
166.742	39
172.777	594
178.805	2281
184.826	6281
190.841	13192
196.849	21198
202.85	26692
208.845	28512
214.833	28134
220.815	27643
226.789	27480
232.758	27326
238.719	27038
244.674	26719
250.623	26178
256.565	25647
262.5	25126
268.429	24615
274.351	24183
280.267	23919
286.176	23651
292.079	23433
297.975	23185
303.865	22929
309.748	22811
315.625	22645
321.495	22483
327.359	22382
333.217	22322
339.068	22322
344.912	22300
350.751	22279
356.583	22223
362.408	22192
368.227	22229
374.04	22268
379.847	22292
385.647	22387
391.44	22516
397.228	22547
403.009	22666
408.784	22735
414.553	22810
420.315	22858
426.071	22836
431.821	22847
437.565	22802
443.302	22816
449.033	22762
454.758	22691
460.477	22703
466.189	22634
471.896	22603
477.596	22531
483.29	22440
488.978	22516
494.66	22342
500.335	22185
506.005	21926
511.668	21696
517.325	21434
522.977	21206
528.622	21094
534.261	20958
539.894	20875
545.521	20751
551.141	20622
556.756	20632
562.365	20514
567.968	20509
573.565	20353
579.155	20298
584.74	20170
590.319	20113
595.892	20052
601.459	19982
607.02	19888
612.575	19809
618.124	19659
623.667	19526
629.204	19421
634.735	19346
640.261	19240
645.781	19200
651.294	19151
656.802	19112
662.304	19101
667.8	19110
673.29	19061
678.775	19036
684.254	18906
689.726	18842
695.193	18798
700.655	18717
706.11	18603
711.56	18533
717.004	18467
722.442	18402
727.874	18320
733.301	18235
738.722	18158
744.137	18086
749.547	18115
754.951	18154
760.349	18161
765.741	18163
771.128	18192
776.509	18180
781.885	18174
787.254	18121
792.618	17986
797.977	17902
803.33	17860
808.677	17699
814.019	17581
819.355	17559
824.686	17478
830.011	17413
835.33	17459
840.644	17371
845.952	17461
851.255	17503
856.552	17532
861.844	17484
867.13	17387
872.41	17332
877.686	17254
882.955	17118
888.219	16972
893.478	16784
898.731	16613
903.979	16415
909.221	16307
914.458	16213
919.69	16213
924.916	16321
930.136	16259
935.351	16370
940.561	16353
945.766	16373
950.965	16260
956.158	16155
961.347	15921
966.529	15750
971.707	15531
976.879	15357
982.046	15266
987.208	15223
992.364	15207
997.515	15321
1002.66	15443
1007.801	15613
1012.936	15704
1018.066	15742
1023.19	15756
1028.309	15702
1033.423	15689
1038.532	15597
1043.636	15469
1048.734	15306
1053.827	15103
1058.915	14899
1063.998	14804
1069.075	14778
1074.147	14758
1079.214	14827
1084.276	14902
1089.333	15042
1094.385	15084
1099.431	15115
1104.472	15095
1109.509	15011
1114.54	14862
1119.565	14708
1124.586	14477
1129.602	14370
1134.613	14238
1139.618	14114
1144.619	14119
1149.614	14157
1154.604	14153
1159.589	14250
1164.57	14237
1169.545	14279
1174.515	14322
1179.48	14186
1184.44	14053
1189.395	13925
1194.345	13865
1199.29	13797
1204.23	13764
1209.165	13855
1214.095	13904
1219.021	14041
1223.941	14103
1228.856	14107
1233.766	14200
1238.672	14227
1243.572	14221
1248.467	14119
1253.358	13926
1258.244	13717
1263.124	13540
1268	13375
1272.871	13191
1277.737	13104
1282.599	13043
1287.455	12996
1292.306	13034
1297.153	13111
1301.995	13155
1306.832	13251
1311.664	13198
1316.491	13135
1321.314	13029
1326.132	12840
1330.945	12600
1335.753	12293
1340.556	11960
1345.354	11736
1350.148	11582
1354.937	11454
1359.722	11465
1364.501	11556
1369.276	11683
1374.046	11904
1378.811	12009
1383.572	12212
1388.327	12199
1393.079	12127
1397.825	12008
1402.567	11793
1407.304	11611
1412.036	11545
1416.764	11442
1421.487	11324
1426.205	11240
1430.919	11235
1435.628	11255
1440.333	11286
1445.032	11348
1449.727	11335
1454.418	11331
1459.104	11212
1463.785	10966
1468.462	10764
1473.134	10569
1477.802	10335
1482.465	10226
1487.123	10100
1491.777	10085
1496.426	10116
1501.071	10269
1505.711	10374
1510.347	10545
1514.978	10765
1519.604	10934
1524.226	10999
1528.844	11048
1533.457	11044
1538.065	10951
1542.669	10883
1547.269	10805
1551.864	10718
1556.454	10682
1561.041	10635
1565.622	10662
1570.199	10675
1574.772	10715
1579.34	10818
1583.904	10870
1588.464	10914
1593.019	10850
1597.569	10852
1602.115	10807
1606.657	10757
1611.195	10658
1615.728	10606
1620.256	10525
1624.78	10558
1629.3	10599
1633.816	10581
1638.327	10674
1642.834	10730
1647.336	10799
1651.834	10762
1656.328	10740
1660.817	10752
1665.302	10592
1669.783	10405
1674.259	10189
1678.732	9891
1683.199	9610
1687.663	9277
1692.122	8986
1696.577	8864
1701.028	8821
1705.474	8910
1709.917	8975
1714.355	9055
1718.788	8982
1723.218	8817
1727.643	8615
1732.064	8460
1736.481	8274
1740.893	8086
1745.301	7866
1749.705	7654
1754.105	7466
1758.501	7248
1762.893	7084
1767.28	6901
1771.663	6734
1776.042	6662
1780.417	6574
1784.787	6566
1789.154	6658
1793.516	6764
1797.874	6931
1802.228	7045
1806.578	7089
1810.924	7125
1815.266	7025
1819.603	6945
1823.937	6803
1828.266	6717
1832.591	6616
1836.913	6533
1841.23	6432
1845.543	6367
1849.852	6375
1854.156	6336
1858.457	6348
1862.754	6317
1867.047	6319
1871.335	6365
1875.62	6318
1879.9	6254
1884.177	6216
1888.449	6195
1892.718	6127
1896.982	6049
1901.243	5977
1905.499	5960
1909.752	5936
1914	5946
1918.245	5952
1922.485	6009
1926.722	6080
1930.954	6158
1935.183	6225
1939.408	6239
1943.628	6320
1947.845	6325
1952.058	6342
1956.267	6283
1960.472	6174
1964.673	6100
1968.87	5994
1973.063	5934
1977.252	5827
1981.438	5752
1985.619	5727
1989.797	5672
1993.971	5633
1998.14	5600
2002.306	5573
2006.469	5554
2010.627	5522
2014.781	5465
2018.932	5483
2023.078	5416
2027.221	5332
2031.36	5243
2035.495	5207
2039.627	5098
2043.754	5043
2047.878	4962
2051.998	4984
2056.114	4971
2060.226	4944
2064.334	4967
2068.439	4980
2072.54	4963
2076.637	5030
2080.73	5066
2084.82	5087
2088.906	5107
2092.988	5097
2097.066	5099
2101.14	5044
2105.211	5005
2109.278	4997
2113.342	4960
2117.401	4933
2121.457	4922
2125.509	4894
2129.558	4880
2133.602	4810
2137.643	4814
2141.681	4769
2145.714	4782
2149.744	4713
2153.77	4698
2157.793	4671
2161.812	4595
2165.827	4524
2169.838	4443
2173.846	4377
2177.851	4326
2181.851	4221
2185.848	4168
2189.841	4144
2193.831	4115
2197.817	4032
2201.799	4051
2205.778	4029
2209.753	4006
2213.725	4020
2217.693	3979
2221.657	3984
2225.618	3972
2229.575	3933
2233.529	3912
2237.479	3893
2241.425	3851
2245.368	3784
2249.307	3712
2253.243	3685
2257.175	3633
2261.104	3578
2265.029	3552
2268.95	3504
2272.868	3445
2276.783	3426
2280.694	3375
2284.601	3380
2288.505	3328
2292.405	3301
2296.302	3249
2300.195	3195
2304.085	3208
2307.971	3144
2311.854	3081
2315.734	3031
2319.609	3007
2323.482	2962
2327.351	2933
2331.216	2911
2335.078	2940
2338.937	2876
2342.792	2834
2346.643	2863
2350.492	2820
2354.336	2835
2358.178	2829
2362.015	2857
2365.85	2862
2369.681	2834
2373.508	2890
2377.333	2836
2381.153	2836
2384.971	2806
2388.785	2823
2392.595	2760
2396.402	2757
2400.206	2723
2404.007	2707
2407.804	2696
2411.597	2697
2415.388	2674
2419.174	2635
2422.958	2631
2426.738	2600
2430.515	2588
2434.289	2549
2438.059	2539
2441.825	2556
2445.589	2505
2449.349	2487
2453.106	2452
2456.859	2402
2460.61	2372
2464.356	2334
2468.1	2339
2471.84	2300
2475.577	2303
2479.311	2281
2483.041	2269
2486.768	2255
2490.492	2250
2494.213	2238
2497.93	2231
2501.644	2228
2505.355	2230
2509.062	2205
2512.766	2196
2516.467	2169
2520.165	2173
2523.859	2139
2527.551	2133
2531.239	2142
2534.923	2110
2538.605	2091
2542.283	2093
2545.958	2106
2549.63	2087
2553.299	2101
2556.964	2079
2560.626	2055
2564.285	2055
2567.941	2048
2571.594	2051
2575.243	2033
2578.89	1987
2582.533	2007
2586.173	1983
2589.809	1955
2593.443	1965
2597.073	1941
2600.701	1915
2604.325	1904
2607.946	1903
2611.564	1885
2615.178	1878
2618.79	1858
2622.398	1849
2626.004	1830
2629.606	1802
2633.205	1805
2636.801	1752
2640.394	1735
2643.983	1708
2647.57	1683
2651.153	1646
2654.734	1632
2658.311	1607
2661.885	1586
2665.456	1547
2669.025	1532
2672.589	1510
2676.151	1492
2679.71	1492
2683.266	1480
2686.819	1433
2690.368	1411
2693.915	1382
2697.458	1345
2700.999	1329
2704.536	1288
2708.071	1267
2711.602	1251
2715.13	1208
2718.656	1177
2722.178	1171
2725.697	1152
2729.214	1140
2732.727	1128
2736.237	1126
2739.744	1110
2743.249	1142
2746.75	1148
2750.248	1140
2753.743	1177
2757.236	1184
2760.725	1185
2764.211	1186
2767.695	1206
2771.175	1200
2774.652	1199
2778.127	1181
2781.598	1173
2785.067	1176
2788.532	1181
2791.995	1143
2795.455	1144
2798.911	1163
2802.365	1165
2805.816	1158
2809.264	1150
2812.709	1149
2816.151	1158
2819.59	1156
2823.026	1157
2826.46	1159
2829.89	1150
2833.318	1175
2836.742	1163
2840.164	1179
2843.583	1178
2846.999	1195
2850.412	1214
2853.822	1215
2857.229	1229
2860.634	1259
2864.035	1255
2867.434	1281
2870.83	1296
2874.223	1323
2877.613	1335
2881	1355
2884.385	1356
2887.766	1381
2891.145	1374
2894.521	1359
2897.894	1345
2901.264	1355
2904.631	1368
2907.996	1366
2911.358	1384
2914.717	1365
2918.073	1407
2921.426	1409
2924.777	1426
2928.124	1428
2931.469	1458
2934.811	1477
2938.15	1497
2941.487	1501
2944.821	1520
2948.152	1547
2951.48	1521
2954.805	1490
2958.128	1478
2961.447	1465
2964.765	1476
2968.079	1493
2971.39	1488
2974.699	1525
2978.005	1531
2981.308	1541
2984.609	1576
2987.907	1595
2991.202	1659
2994.494	1700
2997.784	1720
3001.07	1731
3004.355	1776
3007.636	1786
3010.915	1805
3014.191	1807
3017.464	1808
3020.734	1844
3024.002	1860
3027.267	1851
3030.53	1873
3033.789	1902
3037.046	1910
3040.301	1938
3043.552	1973
3046.801	2021
3050.048	2035
3053.291	2096
3056.532	2161
3059.771	2231
3063.006	2282
3066.239	2347
3069.469	2419
3072.697	2498
3075.922	2535
3079.144	2593
3082.364	2664
3085.581	2726
3088.795	2761
3092.007	2840
3095.216	2876
3098.423	2952
3101.627	3026
3104.828	3084
3108.026	3114
3111.222	3208
3114.416	3276
3117.607	3351
3120.795	3440
3123.98	3515
3127.163	3598
3130.344	3675
3133.521	3771
3136.696	3817
3139.869	3910
3143.039	3988
3146.206	4009
3149.371	4082
3152.533	4126
3155.693	4166
3158.85	4183
3162.005	4206
3165.157	4226
3168.306	4229
3171.453	4218
3174.597	4227
3177.739	4227
3180.878	4268
3184.014	4286
3187.149	4255
3190.28	4276
3193.409	4249
3196.536	4269
3199.659	4287
3202.781	4284
3205.9	4269
3209.016	4300
3212.13	4249
3215.241	4244
3218.35	4194
3221.456	4153
3224.56	4127
3227.661	4077
3230.76	4042
3233.856	3977
3236.95	3978
3240.041	3899
3243.13	3897
3246.216	3884
3249.3	3844
3252.382	3823
3255.46	3820
3258.537	3787
3261.611	3853
3264.682	3837
3267.751	3799
3270.818	3811
3273.882	3804
3276.943	3783
3280.002	3755
3283.059	3705
3286.113	3680
3289.165	3603
3292.214	3546
3295.261	3498
3298.306	3430
3301.348	3402
3304.387	3336
3307.425	3259
3310.459	3230
3313.492	3183
3316.521	3132
3319.549	3114
3322.574	3082
3325.597	3073
3328.617	3008
3331.635	3013
3334.65	2989
3337.663	2962
3340.674	2968
3343.682	2955
3346.688	2966
3349.691	2911
3352.692	2908
3355.691	2887
3358.687	2860
3361.681	2830
3364.673	2778
3367.662	2756
3370.649	2707
3373.633	2660
3376.615	2644
3379.595	2569
3382.572	2558
3385.547	2530
3388.52	2477
3391.49	2442
3394.458	2425
3397.424	2356
3400.387	2345
3403.348	2316
3406.307	2301
3409.263	2252
3412.217	2233
3415.168	2218
3418.118	2182
3421.065	2157
3424.009	2154
3426.951	2115
3429.891	2055
3432.829	2000
3435.764	1987
3438.697	1933
3441.628	1869
3444.557	1820
3447.483	1775
3450.407	1703
3453.328	1664
3456.247	1589
3459.164	1541
3462.079	1489
3464.991	1440
3467.902	1389
3470.809	1329
3473.715	1279
3476.618	1222
3479.519	1179
3482.418	1170
3485.315	1126
3488.209	1083
3491.101	1045
3493.99	1014
3496.878	970
3499.763	935
3502.646	897
3505.527	853
3508.405	826
3511.281	769
3514.155	735
3517.027	694
3519.897	643
3522.764	595
3525.629	554
3528.492	494
3531.352	460
3534.211	428
3537.067	397
3539.921	374
3542.773	320
3545.622	288
3548.469	255
3551.315	234
3554.157	202
3556.998	164
3559.837	143
3562.673	118
3565.507	93
3568.339	76
3571.169	56
3573.996	22
3576.822	16
3579.645	-18
3582.466	-40
3585.285	-63
3588.101	-86
3590.916	-108
3593.728	-134
3596.538	-136
3599.346	-156
3602.152	-188
3604.956	-190
3607.757	-206
3610.556	-238
3613.354	-251
3616.149	-266
3618.942	-276
3621.732	-282
3624.521	-302
3627.307	-308
3630.092	-314
3632.874	-332
3635.654	-339
3638.432	-340
3641.208	-350
3643.982	-379
3646.753	-372
3649.523	-392
3652.29	-396
3655.055	-409
3657.818	-415
3660.579	-426
3663.338	-444
3666.095	-452
3668.849	-465
3671.602	-472
3674.352	-473
3677.101	-479
3679.847	-496
3682.591	-502
3685.333	-506
3688.073	-507
3690.811	-521
3693.547	-519
3696.281	-516
3699.013	-526
3701.742	-539
3704.47	-537
3707.195	-553
3709.919	-540
3712.64	-553
3715.359	-556
3718.076	-566
3720.792	-558
3723.505	-567
3726.216	-572
3728.925	-570
3731.632	-582
3734.336	-585
3737.039	-588
3739.74	-587
3742.439	-588
3745.136	-593
3747.83	-599
3750.523	-593
3753.213	-592
3755.902	-604
3758.589	-604
3761.273	-605
3763.956	-609
3766.636	-613
3769.315	-612
3771.991	-609
3774.665	-615
3777.338	-620
3780.008	-623
3782.677	-623
3785.343	-620
3788.007	-621
3790.67	-624
3793.33	-627
3795.989	-627
3798.645	-627
3801.299	-624
3803.952	-629
3806.602	-640
3809.251	-638
3811.897	-632
3814.542	-634
3817.184	-636
3819.825	-631
3822.463	-633
3825.1	-644
3827.735	-633
3830.367	-636
3832.998	-640
3835.627	-643
3838.253	-649
3840.878	-643
3843.501	-645
3846.122	-640
3848.741	-643
3851.358	-641
3853.973	-640
3856.586	-649
3859.197	-651
3861.806	-649
3864.414	-643
3867.019	-640
3869.622	-647
3872.224	-641
3874.823	-628
3877.421	-617
3880.016	-601
3882.61	-586
3885.202	-581
3887.792	-598
3890.38	-621
3892.966	-641
3895.55	-652
3898.132	-664
3900.713	-661
3903.291	-660
3905.868	-658
3908.442	-662
3911.015	-664
3913.586	-654
3916.155	-658
3918.722	-657
3921.287	-660
3923.85	-665
3926.411	-665
3928.971	-672
3931.528	-664
3934.084	-667
3936.638	-667
3939.19	-666
3941.74	-665
3944.288	-669
3946.834	-657
3949.378	-668
3951.921	-667
3954.462	-674
3957	-668
3959.537	-665
3962.072	-660
3964.606	-666
3967.137	-664
3969.667	-664
3972.194	-655
3974.72	-661
3977.244	-650
3979.766	-647
3982.286	-654
3984.805	-651
3987.321	-650
3989.836	-654
3992.349	-649
3994.86	-648
3997.369	-662
3999.877	-649
4002.382	-643
4004.886	-650
4007.388	-649
4009.888	-650
4012.386	-654
4014.883	-645
4017.377	-645
4019.87	-649
4022.361	-646
4024.85	-649
4027.338	-652
4029.823	-649
4032.307	-649
4034.789	-649
4037.269	-647
4039.747	-651
4042.224	-657
4044.699	-654
4047.172	-654
4049.643	-649
4052.112	-654
4054.58	-659
4057.046	-658
4059.51	-657
4061.972	-652
4064.432	-662
4066.891	-655
4069.348	-651
4071.803	-648
4074.256	-647
4076.708	-647
4079.158	-657
4081.606	-656
4084.052	-660
4086.497	-651
4088.939	-646
4091.38	-646
4093.819	-650
4096.257	-684
4098.693	-683
4101.127	-689
4103.559	-687
4105.989	-399
4108.418	-377
4110.845	-353
4113.27	-322
4115.694	-286
4118.115	-234
4120.535	-650
4122.954	-656
4125.37	-642
4127.785	-652
4130.198	-656
4132.609	-661
4135.019	-688
4137.427	-693
4139.833	-691
4142.237	-687
