Data from 2018-2-14_conc=3_n=8_RamanShift_03.txt Node
Date: Wed Feb 14 12:06:56 IST 2018
User: aro
Spectrometer: QEPB0276
Trigger mode: 0
Integration Time (sec): 3.000000E1
Scans to average: 1
Electric dark correction enabled: true
Nonlinearity correction enabled: false
Boxcar width: 0
XAxis mode: Raman Shifts
Number of Pixels in Spectrum: 1044
>>>>>Begin Spectral Data<<<<<
160.701	-138
166.742	54
172.777	585
178.805	2234
184.826	6215
190.841	13058
196.849	21075
202.85	26792
208.845	28707
214.833	28390
220.815	27843
226.789	27667
232.758	27432
238.719	27242
244.674	26942
250.623	26491
256.565	25872
262.5	25275
268.429	24927
274.351	24472
280.267	24183
286.176	23904
292.079	23680
297.975	23388
303.865	23188
309.748	23028
315.625	22843
321.495	22706
327.359	22646
333.217	22587
339.068	22537
344.912	22566
350.751	22546
356.583	22500
362.408	22461
368.227	22417
374.04	22516
379.847	22530
385.647	22645
391.44	22723
397.228	22831
403.009	22899
408.784	22950
414.553	22997
420.315	23042
426.071	23123
431.821	23030
437.565	23024
443.302	23005
449.033	22912
454.758	22918
460.477	22865
466.189	22849
471.896	22793
477.596	22788
483.29	22689
488.978	22693
494.66	22620
500.335	22374
506.005	22248
511.668	21964
517.325	21709
522.977	21512
528.622	21379
534.261	21247
539.894	21103
545.521	21083
551.141	21003
556.756	20951
562.365	20872
567.968	20817
573.565	20697
579.155	20658
584.74	20550
590.319	20512
595.892	20389
601.459	20320
607.02	20229
612.575	20121
618.124	19985
623.667	19837
629.204	19805
634.735	19701
640.261	19579
645.781	19578
651.294	19500
656.802	19468
662.304	19453
667.8	19384
673.29	19390
678.775	19373
684.254	19316
689.726	19240
695.193	19116
700.655	19027
706.11	18946
711.56	18845
717.004	18776
722.442	18719
727.874	18627
733.301	18556
738.722	18524
744.137	18423
749.547	18446
754.951	18434
760.349	18431
765.741	18485
771.128	18416
776.509	18482
781.885	18478
787.254	18438
792.618	18367
797.977	18174
803.33	18107
808.677	17984
814.019	17910
819.355	17797
824.686	17767
830.011	17692
835.33	17738
840.644	17746
845.952	17728
851.255	17817
856.552	17788
861.844	17738
867.13	17780
872.41	17649
877.686	17528
882.955	17412
888.219	17278
893.478	17101
898.731	16828
903.979	16727
909.221	16597
914.458	16481
919.69	16526
924.916	16589
930.136	16558
935.351	16646
940.561	16674
945.766	16617
950.965	16509
956.158	16403
961.347	16209
966.529	16052
971.707	15845
976.879	15629
982.046	15521
987.208	15467
992.364	15489
997.515	15555
1002.66	15707
1007.801	15899
1012.936	16038
1018.066	16011
1023.19	15962
1028.309	16009
1033.423	15951
1038.532	15877
1043.636	15705
1048.734	15568
1053.827	15319
1058.915	15183
1063.998	15023
1069.075	15025
1074.147	15051
1079.214	15098
1084.276	15184
1089.333	15283
1094.385	15306
1099.431	15374
1104.472	15403
1109.509	15286
1114.54	15123
1119.565	14897
1124.586	14749
1129.602	14594
1134.613	14485
1139.618	14415
1144.619	14338
1149.614	14334
1154.604	14400
1159.589	14423
1164.57	14412
1169.545	14517
1174.515	14493
1179.48	14422
1184.44	14286
1189.395	14176
1194.345	14086
1199.29	14049
1204.23	14007
1209.165	14094
1214.095	14175
1219.021	14246
1223.941	14318
1228.856	14355
1233.766	14430
1238.672	14445
1243.572	14425
1248.467	14356
1253.358	14177
1258.244	13968
1263.124	13735
1268	13535
1272.871	13395
1277.737	13275
1282.599	13190
1287.455	13220
1292.306	13273
1297.153	13292
1301.995	13348
1306.832	13413
1311.664	13449
1316.491	13389
1321.314	13264
1326.132	13084
1330.945	12755
1335.753	12466
1340.556	12190
1345.354	11852
1350.148	11646
1354.937	11618
1359.722	11637
1364.501	11732
1369.276	11932
1374.046	12031
1378.811	12273
1383.572	12371
1388.327	12457
1393.079	12373
1397.825	12167
1402.567	11987
1407.304	11815
1412.036	11673
1416.764	11594
1421.487	11504
1426.205	11437
1430.919	11410
1435.628	11442
1440.333	11467
1445.032	11428
1449.727	11548
1454.418	11454
1459.104	11354
1463.785	11154
1468.462	10952
1473.134	10681
1477.802	10489
1482.465	10312
1487.123	10190
1491.777	10218
1496.426	10258
1501.071	10397
1505.711	10586
1510.347	10806
1514.978	10976
1519.604	11137
1524.226	11234
1528.844	11264
1533.457	11221
1538.065	11191
1542.669	11103
1547.269	11032
1551.864	10900
1556.454	10882
1561.041	10842
1565.622	10830
1570.199	10799
1574.772	10874
1579.34	10998
1583.904	10991
1588.464	11048
1593.019	11037
1597.569	10993
1602.115	10941
1606.657	10839
1611.195	10809
1615.728	10751
1620.256	10743
1624.78	10690
1629.3	10688
1633.816	10709
1638.327	10763
1642.834	10838
1647.336	10901
1651.834	10886
1656.328	10869
1660.817	10878
1665.302	10775
1669.783	10534
1674.259	10407
1678.732	10054
1683.199	9755
1687.663	9381
1692.122	9111
1696.577	8981
1701.028	9028
1705.474	9078
1709.917	9243
1714.355	9282
1718.788	9181
1723.218	9043
1727.643	8863
1732.064	8664
1736.481	8476
1740.893	8267
1745.301	8072
1749.705	7847
1754.105	7639
1758.501	7390
1762.893	7174
1767.28	7000
1771.663	6846
1776.042	6684
1780.417	6657
1784.787	6654
1789.154	6774
1793.516	6933
1797.874	7087
1802.228	7187
1806.578	7305
1810.924	7290
1815.266	7242
1819.603	7105
1823.937	6954
1828.266	6866
1832.591	6724
1836.913	6657
1841.23	6536
1845.543	6545
1849.852	6480
1854.156	6451
1858.457	6420
1862.754	6423
1867.047	6460
1871.335	6427
1875.62	6429
1879.9	6398
1884.177	6349
1888.449	6306
1892.718	6223
1896.982	6162
1901.243	6176
1905.499	6098
1909.752	6086
1914	6111
1918.245	6110
1922.485	6173
1926.722	6239
1930.954	6321
1935.183	6410
1939.408	6473
1943.628	6492
1947.845	6527
1952.058	6491
1956.267	6443
1960.472	6358
1964.673	6254
1968.87	6121
1973.063	6053
1977.252	5964
1981.438	5897
1985.619	5835
1989.797	5795
1993.971	5751
1998.14	5708
2002.306	5680
2006.469	5685
2010.627	5672
2014.781	5620
2018.932	5547
2023.078	5484
2027.221	5430
2031.36	5306
2035.495	5265
2039.627	5172
2043.754	5146
2047.878	5054
2051.998	5040
2056.114	5029
2060.226	5025
2064.334	5041
2068.439	5095
2072.54	5109
2076.637	5101
2080.73	5197
2084.82	5218
2088.906	5241
2092.988	5227
2097.066	5227
2101.14	5238
2105.211	5166
2109.278	5124
2113.342	5063
2117.401	5061
2121.457	5034
2125.509	5042
2129.558	4994
2133.602	4920
2137.643	4922
2141.681	4894
2145.714	4873
2149.744	4827
2153.77	4784
2157.793	4739
2161.812	4644
2165.827	4610
2169.838	4551
2173.846	4492
2177.851	4395
2181.851	4330
2185.848	4243
2189.841	4230
2193.831	4160
2197.817	4145
2201.799	4118
2205.778	4089
2209.753	4075
2213.725	4071
2217.693	4041
2221.657	4055
2225.618	4026
2229.575	4028
2233.529	3967
2237.479	3954
2241.425	3909
2245.368	3835
2249.307	3796
2253.243	3751
2257.175	3704
2261.104	3624
2265.029	3586
2268.95	3571
2272.868	3520
2276.783	3491
2280.694	3457
2284.601	3415
2288.505	3363
2292.405	3339
2296.302	3308
2300.195	3288
2304.085	3236
2307.971	3177
2311.854	3148
2315.734	3092
2319.609	3023
2323.482	3010
2327.351	2993
2331.216	2941
2335.078	2961
2338.937	2908
2342.792	2904
2346.643	2880
2350.492	2882
2354.336	2895
2358.178	2913
2362.015	2917
2365.85	2915
2369.681	2883
2373.508	2896
2377.333	2895
2381.153	2880
2384.971	2844
2388.785	2828
2392.595	2821
2396.402	2781
2400.206	2783
2404.007	2747
2407.804	2719
2411.597	2736
2415.388	2678
2419.174	2676
2422.958	2658
2426.738	2610
2430.515	2615
2434.289	2587
2438.059	2595
2441.825	2547
2445.589	2528
2449.349	2525
2453.106	2478
2456.859	2449
2460.61	2407
2464.356	2381
2468.1	2353
2471.84	2355
2475.577	2309
2479.311	2290
2483.041	2292
2486.768	2266
2490.492	2274
2494.213	2269
2497.93	2265
2501.644	2269
2505.355	2241
2509.062	2249
2512.766	2231
2516.467	2223
2520.165	2174
2523.859	2196
2527.551	2174
2531.239	2160
2534.923	2164
2538.605	2150
2542.283	2154
2545.958	2128
2549.63	2135
2553.299	2156
2556.964	2135
2560.626	2111
2564.285	2096
2567.941	2111
2571.594	2079
2575.243	2055
2578.89	2054
2582.533	2029
2586.173	2008
2589.809	2022
2593.443	1988
2597.073	1962
2600.701	1970
2604.325	1943
2607.946	1945
2611.564	1914
2615.178	1883
2618.79	1896
2622.398	1853
2626.004	1840
2629.606	1838
2633.205	1807
2636.801	1780
2640.394	1752
2643.983	1713
2647.57	1715
2651.153	1675
2654.734	1647
2658.311	1619
2661.885	1572
2665.456	1561
2669.025	1551
2672.589	1539
2676.151	1534
2679.71	1512
2683.266	1505
2686.819	1458
2690.368	1412
2693.915	1396
2697.458	1363
2700.999	1333
2704.536	1309
2708.071	1309
2711.602	1269
2715.13	1221
2718.656	1201
2722.178	1179
2725.697	1156
2729.214	1140
2732.727	1136
2736.237	1147
2739.744	1132
2743.249	1160
2746.75	1165
2750.248	1185
2753.743	1185
2757.236	1197
2760.725	1206
2764.211	1236
2767.695	1242
2771.175	1210
2774.652	1221
2778.127	1204
2781.598	1214
2785.067	1196
2788.532	1191
2791.995	1176
2795.455	1177
2798.911	1176
2802.365	1207
2805.816	1174
2809.264	1191
2812.709	1185
2816.151	1189
2819.59	1186
2823.026	1187
2826.46	1164
2829.89	1183
2833.318	1180
2836.742	1193
2840.164	1192
2843.583	1223
2846.999	1217
2850.412	1211
2853.822	1222
2857.229	1240
2860.634	1267
2864.035	1295
2867.434	1314
2870.83	1338
2874.223	1349
2877.613	1371
2881	1394
2884.385	1381
2887.766	1392
2891.145	1394
2894.521	1375
2897.894	1394
2901.264	1393
2904.631	1380
2907.996	1387
2911.358	1381
2914.717	1388
2918.073	1416
2921.426	1426
2924.777	1442
2928.124	1464
2931.469	1495
2934.811	1509
2938.15	1533
2941.487	1539
2944.821	1552
2948.152	1528
2951.48	1527
2954.805	1506
2958.128	1504
2961.447	1505
2964.765	1475
2968.079	1499
2971.39	1504
2974.699	1524
2978.005	1561
2981.308	1565
2984.609	1614
2987.907	1641
2991.202	1673
2994.494	1701
2997.784	1746
3001.07	1770
3004.355	1811
3007.636	1851
3010.915	1858
3014.191	1852
3017.464	1862
3020.734	1890
3024.002	1889
3027.267	1903
3030.53	1898
3033.789	1920
3037.046	1959
3040.301	1949
3043.552	2021
3046.801	2035
3050.048	2087
3053.291	2153
3056.532	2220
3059.771	2261
3063.006	2327
3066.239	2398
3069.469	2477
3072.697	2512
3075.922	2569
3079.144	2639
3082.364	2720
3085.581	2769
3088.795	2826
3092.007	2884
3095.216	2923
3098.423	2997
3101.627	3055
3104.828	3136
3108.026	3201
3111.222	3282
3114.416	3344
3117.607	3403
3120.795	3483
3123.98	3562
3127.163	3679
3130.344	3761
3133.521	3855
3136.696	3891
3139.869	4020
3143.039	4088
3146.206	4121
3149.371	4188
3152.533	4216
3155.693	4246
3158.85	4251
3162.005	4260
3165.157	4310
3168.306	4307
3171.453	4316
3174.597	4331
3177.739	4302
3180.878	4306
3184.014	4359
3187.149	4330
3190.28	4358
3193.409	4350
3196.536	4357
3199.659	4361
3202.781	4390
3205.9	4365
3209.016	4361
3212.13	4344
3215.241	4314
3218.35	4269
3221.456	4243
3224.56	4164
3227.661	4123
3230.76	4090
3233.856	4064
3236.95	4036
3240.041	3997
3243.13	3984
3246.216	3978
3249.3	3967
3252.382	3920
3255.46	3907
3258.537	3892
3261.611	3884
3264.682	3910
3267.751	3895
3270.818	3876
3273.882	3872
3276.943	3855
3280.002	3843
3283.059	3775
3286.113	3742
3289.165	3654
3292.214	3653
3295.261	3560
3298.306	3501
3301.348	3449
3304.387	3414
3307.425	3334
3310.459	3281
3313.492	3220
3316.521	3186
3319.549	3156
3322.574	3132
3325.597	3114
3328.617	3101
3331.635	3050
3334.65	3034
3337.663	3000
3340.674	3003
3343.682	3005
3346.688	2979
3349.691	2970
3352.692	2966
3355.691	2922
3358.687	2903
3361.681	2879
3364.673	2819
3367.662	2777
3370.649	2750
3373.633	2708
3376.615	2683
3379.595	2648
3382.572	2607
3385.547	2549
3388.52	2527
3391.49	2510
3394.458	2440
3397.424	2422
3400.387	2381
3403.348	2357
3406.307	2335
3409.263	2308
3412.217	2294
3415.168	2257
3418.118	2223
3421.065	2179
3424.009	2166
3426.951	2127
3429.891	2104
3432.829	2057
3435.764	2016
3438.697	1960
3441.628	1878
3444.557	1831
3447.483	1788
3450.407	1738
3453.328	1685
3456.247	1634
3459.164	1561
3462.079	1526
3464.991	1491
3467.902	1412
3470.809	1347
3473.715	1296
3476.618	1260
3479.519	1225
3482.418	1173
3485.315	1137
3488.209	1102
3491.101	1067
3493.99	1042
3496.878	1016
3499.763	957
3502.646	919
3505.527	886
3508.405	852
3511.281	788
3514.155	758
3517.027	716
3519.897	676
3522.764	615
3525.629	577
3528.492	524
3531.352	486
3534.211	441
3537.067	416
3539.921	383
3542.773	332
3545.622	301
3548.469	262
3551.315	236
3554.157	207
3556.998	172
3559.837	158
3562.673	125
3565.507	103
3568.339	67
3571.169	61
3573.996	49
3576.822	24
3579.645	2
3582.466	-44
3585.285	-59
3588.101	-78
3590.916	-95
3593.728	-126
3596.538	-142
3599.346	-161
3602.152	-174
3604.956	-191
3607.757	-208
3610.556	-232
3613.354	-226
3616.149	-252
3618.942	-261
3621.732	-275
3624.521	-286
3627.307	-295
3630.092	-315
3632.874	-322
3635.654	-334
3638.432	-332
3641.208	-349
3643.982	-363
3646.753	-369
3649.523	-382
3652.29	-398
3655.055	-400
3657.818	-414
3660.579	-422
3663.338	-438
3666.095	-440
3668.849	-454
3671.602	-465
3674.352	-475
3677.101	-473
3679.847	-498
3682.591	-502
3685.333	-499
3688.073	-497
3690.811	-513
3693.547	-513
3696.281	-519
3699.013	-534
3701.742	-530
3704.47	-532
3707.195	-548
3709.919	-542
3712.64	-549
3715.359	-544
3718.076	-558
3720.792	-555
3723.505	-554
3726.216	-567
3728.925	-566
3731.632	-575
3734.336	-581
3737.039	-579
3739.74	-577
3742.439	-589
3745.136	-587
3747.83	-592
3750.523	-592
3753.213	-583
3755.902	-593
3758.589	-594
3761.273	-600
3763.956	-603
3766.636	-598
3769.315	-607
3771.991	-605
3774.665	-608
3777.338	-614
3780.008	-613
3782.677	-614
3785.343	-613
3788.007	-615
3790.67	-618
3793.33	-622
3795.989	-623
3798.645	-623
3801.299	-623
3803.952	-625
3806.602	-631
3809.251	-632
3811.897	-633
3814.542	-630
3817.184	-625
3819.825	-628
3822.463	-627
3825.1	-630
3827.735	-621
3830.367	-625
3832.998	-636
3835.627	-641
3838.253	-637
3840.878	-646
3843.501	-639
3846.122	-638
3848.741	-638
3851.358	-644
3853.973	-641
3856.586	-642
3859.197	-643
3861.806	-641
3864.414	-638
3867.019	-641
3869.622	-640
3872.224	-641
3874.823	-625
3877.421	-616
3880.016	-594
3882.61	-572
3885.202	-577
3887.792	-591
3890.38	-614
3892.966	-631
3895.55	-643
3898.132	-658
3900.713	-657
3903.291	-656
3905.868	-657
3908.442	-652
3911.015	-656
3913.586	-651
3916.155	-652
3918.722	-660
3921.287	-653
3923.85	-662
3926.411	-654
3928.971	-666
3931.528	-661
3934.084	-660
3936.638	-656
3939.19	-654
3941.74	-658
3944.288	-666
3946.834	-653
3949.378	-662
3951.921	-658
3954.462	-667
3957	-657
3959.537	-656
3962.072	-658
3964.606	-657
3967.137	-659
3969.667	-659
3972.194	-648
3974.72	-656
3977.244	-640
3979.766	-646
3982.286	-643
3984.805	-641
3987.321	-647
3989.836	-645
3992.349	-642
3994.86	-644
3997.369	-647
3999.877	-639
4002.382	-644
4004.886	-641
4007.388	-643
4009.888	-641
4012.386	-647
4014.883	-643
4017.377	-640
4019.87	-643
4022.361	-645
4024.85	-643
4027.338	-644
4029.823	-639
4032.307	-645
4034.789	-642
4037.269	-642
4039.747	-648
4042.224	-651
4044.699	-648
4047.172	-641
4049.643	-645
4052.112	-654
4054.58	-650
4057.046	-652
4059.51	-654
4061.972	-649
4064.432	-652
4066.891	-655
4069.348	-644
4071.803	-645
4074.256	-642
4076.708	-648
4079.158	-646
4081.606	-646
4084.052	-651
4086.497	-648
4088.939	-642
4091.38	-646
4093.819	-645
4096.257	-684
4098.693	-683
4101.127	-684
4103.559	-678
4105.989	-402
4108.418	-371
4110.845	-348
4113.27	-320
4115.694	-281
4118.115	-237
4120.535	-642
4122.954	-647
4125.37	-640
4127.785	-646
4130.198	-649
4132.609	-648
4135.019	-685
4137.427	-686
4139.833	-684
4142.237	-680
