Data from 2018-2-14_conc=4_n=6_RamanShift_02.txt Node
Date: Wed Feb 14 13:43:55 IST 2018
User: aro
Spectrometer: QEPB0276
Trigger mode: 0
Integration Time (sec): 3.000000E1
Scans to average: 1
Electric dark correction enabled: true
Nonlinearity correction enabled: false
Boxcar width: 0
XAxis mode: Raman Shifts
Number of Pixels in Spectrum: 1044
>>>>>Begin Spectral Data<<<<<
160.701	-141
166.742	40
172.777	588
178.805	2196
184.826	6148
190.841	12881
196.849	20727
202.85	26313
208.845	28102
214.833	27813
220.815	27369
226.789	27112
232.758	26966
238.719	26843
244.674	26391
250.623	25926
256.565	25337
262.5	24907
268.429	24412
274.351	24089
280.267	23685
286.176	23475
292.079	23204
297.975	23016
303.865	22792
309.748	22647
315.625	22560
321.495	22323
327.359	22317
333.217	22186
339.068	22183
344.912	22173
350.751	22148
356.583	22188
362.408	22156
368.227	22118
374.04	22154
379.847	22177
385.647	22377
391.44	22334
397.228	22507
403.009	22510
408.784	22615
414.553	22682
420.315	22722
426.071	22732
431.821	22743
437.565	22750
443.302	22662
449.033	22570
454.758	22576
460.477	22562
466.189	22508
471.896	22466
477.596	22363
483.29	22305
488.978	22262
494.66	22224
500.335	22122
506.005	21832
511.668	21612
517.325	21335
522.977	21185
528.622	21039
534.261	20902
539.894	20839
545.521	20746
551.141	20658
556.756	20571
562.365	20514
567.968	20392
573.565	20349
579.155	20276
584.74	20146
590.319	20149
595.892	20002
601.459	19971
607.02	19823
612.575	19746
618.124	19631
623.667	19505
629.204	19406
634.735	19394
640.261	19234
645.781	19224
651.294	19123
656.802	19114
662.304	19064
667.8	19076
673.29	19000
678.775	18989
684.254	18932
689.726	18877
695.193	18759
700.655	18692
706.11	18611
711.56	18519
717.004	18416
722.442	18334
727.874	18336
733.301	18197
738.722	18185
744.137	18143
749.547	18145
754.951	18158
760.349	18110
765.741	18091
771.128	18139
776.509	18185
781.885	18161
787.254	18109
792.618	18052
797.977	17892
803.33	17792
808.677	17679
814.019	17605
819.355	17537
824.686	17395
830.011	17390
835.33	17403
840.644	17459
845.952	17441
851.255	17461
856.552	17541
861.844	17465
867.13	17411
872.41	17374
877.686	17245
882.955	17160
888.219	16972
893.478	16789
898.731	16591
903.979	16409
909.221	16289
914.458	16161
919.69	16229
924.916	16277
930.136	16295
935.351	16347
940.561	16398
945.766	16295
950.965	16249
956.158	16148
961.347	15988
966.529	15743
971.707	15554
976.879	15419
982.046	15256
987.208	15228
992.364	15255
997.515	15274
1002.66	15438
1007.801	15666
1012.936	15705
1018.066	15726
1023.19	15740
1028.309	15727
1033.423	15717
1038.532	15642
1043.636	15430
1048.734	15294
1053.827	15099
1058.915	14932
1063.998	14827
1069.075	14816
1074.147	14813
1079.214	14886
1084.276	14942
1089.333	14997
1094.385	15084
1099.431	15158
1104.472	15138
1109.509	15009
1114.54	14902
1119.565	14675
1124.586	14498
1129.602	14359
1134.613	14278
1139.618	14169
1144.619	14178
1149.614	14149
1154.604	14169
1159.589	14257
1164.57	14222
1169.545	14295
1174.515	14270
1179.48	14186
1184.44	14157
1189.395	13956
1194.345	13878
1199.29	13831
1204.23	13810
1209.165	13867
1214.095	13927
1219.021	14009
1223.941	14069
1228.856	14164
1233.766	14206
1238.672	14210
1243.572	14220
1248.467	14102
1253.358	13971
1258.244	13755
1263.124	13521
1268	13355
1272.871	13181
1277.737	13026
1282.599	13031
1287.455	13027
1292.306	13040
1297.153	13088
1301.995	13139
1306.832	13195
1311.664	13224
1316.491	13219
1321.314	13060
1326.132	12877
1330.945	12579
1335.753	12309
1340.556	11987
1345.354	11723
1350.148	11484
1354.937	11457
1359.722	11396
1364.501	11441
1369.276	11616
1374.046	11772
1378.811	11907
1383.572	12022
1388.327	12118
1393.079	12047
1397.825	11951
1402.567	11770
1407.304	11641
1412.036	11474
1416.764	11432
1421.487	11363
1426.205	11306
1430.919	11226
1435.628	11266
1440.333	11256
1445.032	11241
1449.727	11284
1454.418	11257
1459.104	11157
1463.785	10950
1468.462	10709
1473.134	10486
1477.802	10260
1482.465	10052
1487.123	9925
1491.777	9979
1496.426	9955
1501.071	10061
1505.711	10209
1510.347	10391
1514.978	10603
1519.604	10763
1524.226	10861
1528.844	10908
1533.457	10887
1538.065	10799
1542.669	10758
1547.269	10722
1551.864	10633
1556.454	10596
1561.041	10590
1565.622	10547
1570.199	10588
1574.772	10680
1579.34	10761
1583.904	10774
1588.464	10794
1593.019	10785
1597.569	10771
1602.115	10726
1606.657	10592
1611.195	10571
1615.728	10504
1620.256	10441
1624.78	10413
1629.3	10472
1633.816	10489
1638.327	10490
1642.834	10544
1647.336	10642
1651.834	10575
1656.328	10587
1660.817	10532
1665.302	10426
1669.783	10266
1674.259	10024
1678.732	9756
1683.199	9425
1687.663	9098
1692.122	8786
1696.577	8650
1701.028	8587
1705.474	8684
1709.917	8788
1714.355	8856
1718.788	8827
1723.218	8705
1727.643	8522
1732.064	8348
1736.481	8170
1740.893	8008
1745.301	7759
1749.705	7594
1754.105	7324
1758.501	7122
1762.893	6962
1767.28	6750
1771.663	6629
1776.042	6484
1780.417	6425
1784.787	6393
1789.154	6477
1793.516	6571
1797.874	6714
1802.228	6859
1806.578	6913
1810.924	6951
1815.266	6865
1819.603	6779
1823.937	6693
1828.266	6567
1832.591	6503
1836.913	6361
1841.23	6329
1845.543	6292
1849.852	6248
1854.156	6235
1858.457	6223
1862.754	6184
1867.047	6199
1871.335	6176
1875.62	6146
1879.9	6135
1884.177	6077
1888.449	6036
1892.718	5976
1896.982	5903
1901.243	5812
1905.499	5780
1909.752	5735
1914	5753
1918.245	5807
1922.485	5832
1926.722	5896
1930.954	5984
1935.183	6017
1939.408	6124
1943.628	6131
1947.845	6154
1952.058	6146
1956.267	6115
1960.472	6019
1964.673	5936
1968.87	5850
1973.063	5759
1977.252	5692
1981.438	5624
1985.619	5577
1989.797	5534
1993.971	5503
1998.14	5491
2002.306	5475
2006.469	5402
2010.627	5423
2014.781	5373
2018.932	5354
2023.078	5262
2027.221	5170
2031.36	5102
2035.495	5044
2039.627	4969
2043.754	4876
2047.878	4843
2051.998	4795
2056.114	4789
2060.226	4771
2064.334	4809
2068.439	4810
2072.54	4842
2076.637	4863
2080.73	4901
2084.82	4924
2088.906	4940
2092.988	4930
2097.066	4937
2101.14	4913
2105.211	4883
2109.278	4826
2113.342	4830
2117.401	4791
2121.457	4749
2125.509	4766
2129.558	4733
2133.602	4685
2137.643	4685
2141.681	4662
2145.714	4632
2149.744	4569
2153.77	4544
2157.793	4497
2161.812	4435
2165.827	4392
2169.838	4332
2173.846	4269
2177.851	4174
2181.851	4110
2185.848	4086
2189.841	4030
2193.831	3989
2197.817	3929
2201.799	3936
2205.778	3913
2209.753	3903
2213.725	3869
2217.693	3880
2221.657	3849
2225.618	3858
2229.575	3851
2233.529	3811
2237.479	3770
2241.425	3751
2245.368	3691
2249.307	3600
2253.243	3586
2257.175	3518
2261.104	3472
2265.029	3442
2268.95	3394
2272.868	3367
2276.783	3344
2280.694	3295
2284.601	3273
2288.505	3248
2292.405	3215
2296.302	3186
2300.195	3146
2304.085	3106
2307.971	3084
2311.854	3034
2315.734	2986
2319.609	2944
2323.482	2888
2327.351	2875
2331.216	2858
2335.078	2863
2338.937	2828
2342.792	2817
2346.643	2806
2350.492	2788
2354.336	2816
2358.178	2795
2362.015	2808
2365.85	2864
2369.681	2816
2373.508	2841
2377.333	2818
2381.153	2808
2384.971	2808
2388.785	2757
2392.595	2724
2396.402	2721
2400.206	2687
2404.007	2683
2407.804	2676
2411.597	2647
2415.388	2639
2419.174	2620
2422.958	2607
2426.738	2566
2430.515	2567
2434.289	2540
2438.059	2514
2441.825	2495
2445.589	2465
2449.349	2449
2453.106	2415
2456.859	2387
2460.61	2383
2464.356	2324
2468.1	2292
2471.84	2290
2475.577	2255
2479.311	2247
2483.041	2235
2486.768	2216
2490.492	2202
2494.213	2224
2497.93	2190
2501.644	2178
2505.355	2175
2509.062	2170
2512.766	2156
2516.467	2152
2520.165	2120
2523.859	2112
2527.551	2098
2531.239	2086
2534.923	2070
2538.605	2052
2542.283	2058
2545.958	2047
2549.63	2046
2553.299	2049
2556.964	2039
2560.626	2035
2564.285	2027
2567.941	2007
2571.594	2009
2575.243	1985
2578.89	1968
2582.533	1944
2586.173	1949
2589.809	1929
2593.443	1919
2597.073	1892
2600.701	1870
2604.325	1876
2607.946	1834
2611.564	1839
2615.178	1826
2618.79	1821
2622.398	1815
2626.004	1797
2629.606	1765
2633.205	1758
2636.801	1729
2640.394	1708
2643.983	1681
2647.57	1633
2651.153	1623
2654.734	1571
2658.311	1572
2661.885	1555
2665.456	1545
2669.025	1529
2672.589	1500
2676.151	1489
2679.71	1469
2683.266	1452
2686.819	1420
2690.368	1393
2693.915	1355
2697.458	1332
2700.999	1285
2704.536	1262
2708.071	1238
2711.602	1225
2715.13	1187
2718.656	1172
2722.178	1158
2725.697	1122
2729.214	1118
2732.727	1120
2736.237	1096
2739.744	1091
2743.249	1113
2746.75	1114
2750.248	1094
2753.743	1135
2757.236	1161
2760.725	1153
2764.211	1175
2767.695	1158
2771.175	1159
2774.652	1167
2778.127	1144
2781.598	1142
2785.067	1128
2788.532	1135
2791.995	1138
2795.455	1146
2798.911	1139
2802.365	1138
2805.816	1120
2809.264	1137
2812.709	1126
2816.151	1136
2819.59	1115
2823.026	1136
2826.46	1121
2829.89	1134
2833.318	1129
2836.742	1132
2840.164	1143
2843.583	1152
2846.999	1162
2850.412	1173
2853.822	1192
2857.229	1196
2860.634	1218
2864.035	1244
2867.434	1248
2870.83	1305
2874.223	1298
2877.613	1318
2881	1333
2884.385	1330
2887.766	1334
2891.145	1326
2894.521	1321
2897.894	1340
2901.264	1320
2904.631	1341
2907.996	1337
2911.358	1339
2914.717	1336
2918.073	1361
2921.426	1366
2924.777	1380
2928.124	1394
2931.469	1421
2934.811	1451
2938.15	1448
2941.487	1461
2944.821	1479
2948.152	1484
2951.48	1492
2954.805	1460
2958.128	1424
2961.447	1426
2964.765	1417
2968.079	1429
2971.39	1437
2974.699	1455
2978.005	1468
2981.308	1488
2984.609	1529
2987.907	1567
2991.202	1571
2994.494	1611
2997.784	1644
3001.07	1681
3004.355	1695
3007.636	1730
3010.915	1730
3014.191	1742
3017.464	1757
3020.734	1800
3024.002	1773
3027.267	1813
3030.53	1848
3033.789	1835
3037.046	1840
3040.301	1872
3043.552	1904
3046.801	1958
3050.048	1985
3053.291	2021
3056.532	2088
3059.771	2135
3063.006	2228
3066.239	2281
3069.469	2353
3072.697	2381
3075.922	2455
3079.144	2513
3082.364	2571
3085.581	2620
3088.795	2664
3092.007	2747
3095.216	2756
3098.423	2848
3101.627	2907
3104.828	2945
3108.026	3032
3111.222	3110
3114.416	3162
3117.607	3241
3120.795	3321
3123.98	3385
3127.163	3470
3130.344	3547
3133.521	3617
3136.696	3700
3139.869	3777
3143.039	3836
3146.206	3884
3149.371	3932
3152.533	3964
3155.693	3995
3158.85	4017
3162.005	4028
3165.157	4038
3168.306	4059
3171.453	4061
3174.597	4090
3177.739	4104
3180.878	4094
3184.014	4098
3187.149	4129
3190.28	4098
3193.409	4113
3196.536	4136
3199.659	4186
3202.781	4131
3205.9	4155
3209.016	4125
3212.13	4122
3215.241	4075
3218.35	4075
3221.456	4011
3224.56	3951
3227.661	3924
3230.76	3889
3233.856	3821
3236.95	3817
3240.041	3775
3243.13	3747
3246.216	3712
3249.3	3694
3252.382	3699
3255.46	3680
3258.537	3652
3261.611	3659
3264.682	3669
3267.751	3683
3270.818	3652
3273.882	3665
3276.943	3623
3280.002	3604
3283.059	3572
3286.113	3543
3289.165	3472
3292.214	3431
3295.261	3381
3298.306	3336
3301.348	3261
3304.387	3228
3307.425	3159
3310.459	3103
3313.492	3074
3316.521	3021
3319.549	2990
3322.574	2965
3325.597	2943
3328.617	2907
3331.635	2912
3334.65	2884
3337.663	2874
3340.674	2844
3343.682	2844
3346.688	2845
3349.691	2809
3352.692	2813
3355.691	2788
3358.687	2776
3361.681	2712
3364.673	2696
3367.662	2617
3370.649	2611
3373.633	2568
3376.615	2552
3379.595	2516
3382.572	2482
3385.547	2423
3388.52	2397
3391.49	2343
3394.458	2326
3397.424	2300
3400.387	2254
3403.348	2212
3406.307	2199
3409.263	2172
3412.217	2152
3415.168	2150
3418.118	2104
3421.065	2079
3424.009	2053
3426.951	2020
3429.891	1994
3432.829	1929
3435.764	1895
3438.697	1858
3441.628	1800
3444.557	1775
3447.483	1698
3450.407	1651
3453.328	1596
3456.247	1528
3459.164	1491
3462.079	1416
3464.991	1368
3467.902	1335
3470.809	1273
3473.715	1247
3476.618	1169
3479.519	1146
3482.418	1090
3485.315	1050
3488.209	1035
3491.101	998
3493.99	965
3496.878	930
3499.763	887
3502.646	858
3505.527	799
3508.405	772
3511.281	733
3514.155	708
3517.027	660
3519.897	627
3522.764	562
3525.629	534
3528.492	490
3531.352	446
3534.211	415
3537.067	380
3539.921	350
3542.773	295
3545.622	258
3548.469	230
3551.315	211
3554.157	190
3556.998	144
3559.837	132
3562.673	86
3565.507	76
3568.339	57
3571.169	47
3573.996	16
3576.822	4
3579.645	-27
3582.466	-48
3585.285	-64
3588.101	-83
3590.916	-108
3593.728	-133
3596.538	-133
3599.346	-160
3602.152	-186
3604.956	-189
3607.757	-217
3610.556	-230
3613.354	-250
3616.149	-258
3618.942	-266
3621.732	-275
3624.521	-302
3627.307	-301
3630.092	-317
3632.874	-323
3635.654	-344
3638.432	-344
3641.208	-348
3643.982	-368
3646.753	-375
3649.523	-378
3652.29	-391
3655.055	-395
3657.818	-406
3660.579	-415
3663.338	-435
3666.095	-437
3668.849	-458
3671.602	-459
3674.352	-465
3677.101	-472
3679.847	-479
3682.591	-493
3685.333	-493
3688.073	-498
3690.811	-502
3693.547	-511
3696.281	-518
3699.013	-516
3701.742	-525
3704.47	-529
3707.195	-539
3709.919	-535
3712.64	-546
3715.359	-541
3718.076	-545
3720.792	-547
3723.505	-547
3726.216	-562
3728.925	-557
3731.632	-569
3734.336	-571
3737.039	-570
3739.74	-569
3742.439	-570
3745.136	-579
3747.83	-583
3750.523	-580
3753.213	-564
3755.902	-586
3758.589	-589
3761.273	-594
3763.956	-592
3766.636	-604
3769.315	-598
3771.991	-595
3774.665	-598
3777.338	-604
3780.008	-603
3782.677	-608
3785.343	-605
3788.007	-604
3790.67	-607
3793.33	-609
3795.989	-610
3798.645	-608
3801.299	-610
3803.952	-613
3806.602	-617
3809.251	-619
3811.897	-615
3814.542	-620
3817.184	-617
3819.825	-614
3822.463	-617
3825.1	-629
3827.735	-611
3830.367	-614
3832.998	-627
3835.627	-627
3838.253	-626
3840.878	-633
3843.501	-627
3846.122	-627
3848.741	-628
3851.358	-625
3853.973	-627
3856.586	-626
3859.197	-634
3861.806	-633
3864.414	-625
3867.019	-627
3869.622	-625
3872.224	-628
3874.823	-612
3877.421	-594
3880.016	-583
3882.61	-569
3885.202	-563
3887.792	-584
3890.38	-604
3892.966	-624
3895.55	-629
3898.132	-648
3900.713	-653
3903.291	-642
3905.868	-642
3908.442	-648
3911.015	-647
3913.586	-641
3916.155	-640
3918.722	-649
3921.287	-647
3923.85	-652
3926.411	-643
3928.971	-656
3931.528	-645
3934.084	-646
3936.638	-643
3939.19	-646
3941.74	-648
3944.288	-649
3946.834	-641
3949.378	-649
3951.921	-651
3954.462	-654
3957	-649
3959.537	-652
3962.072	-646
3964.606	-649
3967.137	-648
3969.667	-650
3972.194	-644
3974.72	-645
3977.244	-635
3979.766	-635
3982.286	-638
3984.805	-637
3987.321	-637
3989.836	-633
3992.349	-630
3994.86	-632
3997.369	-643
3999.877	-631
4002.382	-631
4004.886	-630
4007.388	-636
4009.888	-635
4012.386	-635
4014.883	-631
4017.377	-636
4019.87	-635
4022.361	-633
4024.85	-642
4027.338	-639
4029.823	-636
4032.307	-640
4034.789	-630
4037.269	-633
4039.747	-635
4042.224	-638
4044.699	-634
4047.172	-635
4049.643	-633
4052.112	-646
4054.58	-641
4057.046	-641
4059.51	-641
4061.972	-636
4064.432	-642
4066.891	-635
4069.348	-635
4071.803	-631
4074.256	-634
4076.708	-636
4079.158	-639
4081.606	-643
4084.052	-646
4086.497	-637
4088.939	-633
4091.38	-635
4093.819	-636
4096.257	-669
4098.693	-668
4101.127	-670
4103.559	-670
4105.989	-389
4108.418	-367
4110.845	-344
4113.27	-314
4115.694	-278
4118.115	-229
4120.535	-633
4122.954	-631
4125.37	-627
4127.785	-635
4130.198	-639
4132.609	-635
4135.019	-671
4137.427	-672
4139.833	-673
4142.237	-667
