Data from 2018-2-14_conc=5_n=3_RamanShift_04.txt Node
Date: Wed Feb 14 14:12:25 IST 2018
User: aro
Spectrometer: QEPB0276
Trigger mode: 0
Integration Time (sec): 3.000000E1
Scans to average: 1
Electric dark correction enabled: true
Nonlinearity correction enabled: false
Boxcar width: 0
XAxis mode: Raman Shifts
Number of Pixels in Spectrum: 1044
>>>>>Begin Spectral Data<<<<<
160.701	-153
166.742	49
172.777	571
178.805	2194
184.826	6045
190.841	12687
196.849	20368
202.85	25764
208.845	27538
214.833	27326
220.815	26803
226.789	26675
232.758	26439
238.719	26272
244.674	25793
250.623	25381
256.565	24819
262.5	24320
268.429	23856
274.351	23518
280.267	23187
286.176	22915
292.079	22627
297.975	22416
303.865	22238
309.748	22172
315.625	21899
321.495	21804
327.359	21704
333.217	21642
339.068	21710
344.912	21604
350.751	21603
356.583	21579
362.408	21544
368.227	21528
374.04	21566
379.847	21614
385.647	21689
391.44	21739
397.228	21861
403.009	21994
408.784	22067
414.553	22082
420.315	22151
426.071	22157
431.821	22134
437.565	22101
443.302	22086
449.033	22048
454.758	22089
460.477	21936
466.189	21906
471.896	21871
477.596	21797
483.29	21745
488.978	21696
494.66	21643
500.335	21456
506.005	21239
511.668	20952
517.325	20739
522.977	20533
528.622	20336
534.261	20196
539.894	20138
545.521	20044
551.141	19959
556.756	19975
562.365	19852
567.968	19754
573.565	19664
579.155	19555
584.74	19549
590.319	19457
595.892	19334
601.459	19308
607.02	19167
612.575	19086
618.124	18908
623.667	18874
629.204	18783
634.735	18617
640.261	18576
645.781	18564
651.294	18507
656.802	18487
662.304	18422
667.8	18370
673.29	18307
678.775	18329
684.254	18197
689.726	18196
695.193	18166
700.655	18070
706.11	17957
711.56	17884
717.004	17768
722.442	17682
727.874	17662
733.301	17539
738.722	17538
744.137	17490
749.547	17505
754.951	17463
760.349	17483
765.741	17465
771.128	17433
776.509	17476
781.885	17539
787.254	17418
792.618	17371
797.977	17217
803.33	17168
808.677	17018
814.019	16928
819.355	16914
824.686	16807
830.011	16722
835.33	16703
840.644	16715
845.952	16807
851.255	16744
856.552	16844
861.844	16761
867.13	16757
872.41	16663
877.686	16612
882.955	16447
888.219	16302
893.478	16104
898.731	15986
903.979	15751
909.221	15680
914.458	15576
919.69	15518
924.916	15641
930.136	15668
935.351	15642
940.561	15683
945.766	15600
950.965	15585
956.158	15424
961.347	15285
966.529	15097
971.707	14903
976.879	14731
982.046	14621
987.208	14554
992.364	14537
997.515	14674
1002.66	14780
1007.801	14963
1012.936	15044
1018.066	15026
1023.19	15003
1028.309	15038
1033.423	15020
1038.532	14913
1043.636	14819
1048.734	14590
1053.827	14482
1058.915	14278
1063.998	14146
1069.075	14125
1074.147	14122
1079.214	14192
1084.276	14223
1089.333	14393
1094.385	14437
1099.431	14488
1104.472	14470
1109.509	14389
1114.54	14222
1119.565	14036
1124.586	13836
1129.602	13712
1134.613	13605
1139.618	13552
1144.619	13472
1149.614	13497
1154.604	13569
1159.589	13536
1164.57	13586
1169.545	13648
1174.515	13604
1179.48	13473
1184.44	13416
1189.395	13313
1194.345	13229
1199.29	13138
1204.23	13169
1209.165	13198
1214.095	13300
1219.021	13338
1223.941	13368
1228.856	13443
1233.766	13521
1238.672	13585
1243.572	13521
1248.467	13400
1253.358	13261
1258.244	13112
1263.124	12888
1268	12693
1272.871	12514
1277.737	12477
1282.599	12432
1287.455	12357
1292.306	12398
1297.153	12458
1301.995	12481
1306.832	12513
1311.664	12548
1316.491	12526
1321.314	12450
1326.132	12204
1330.945	11992
1335.753	11705
1340.556	11435
1345.354	11227
1350.148	11063
1354.937	10927
1359.722	11009
1364.501	11008
1369.276	11151
1374.046	11296
1378.811	11358
1383.572	11524
1388.327	11550
1393.079	11476
1397.825	11332
1402.567	11203
1407.304	10999
1412.036	10895
1416.764	10835
1421.487	10728
1426.205	10733
1430.919	10666
1435.628	10673
1440.333	10732
1445.032	10689
1449.727	10787
1454.418	10713
1459.104	10660
1463.785	10430
1468.462	10240
1473.134	10034
1477.802	9826
1482.465	9748
1487.123	9577
1491.777	9612
1496.426	9652
1501.071	9754
1505.711	9909
1510.347	10056
1514.978	10216
1519.604	10344
1524.226	10443
1528.844	10480
1533.457	10468
1538.065	10396
1542.669	10319
1547.269	10204
1551.864	10148
1556.454	10120
1561.041	10076
1565.622	10072
1570.199	10118
1574.772	10165
1579.34	10213
1583.904	10270
1588.464	10301
1593.019	10281
1597.569	10302
1602.115	10222
1606.657	10179
1611.195	10093
1615.728	10030
1620.256	9984
1624.78	9984
1629.3	10020
1633.816	10046
1638.327	10132
1642.834	10156
1647.336	10202
1651.834	10265
1656.328	10195
1660.817	10161
1665.302	10045
1669.783	9940
1674.259	9684
1678.732	9425
1683.199	9121
1687.663	8847
1692.122	8559
1696.577	8400
1701.028	8377
1705.474	8445
1709.917	8540
1714.355	8534
1718.788	8468
1723.218	8299
1727.643	8197
1732.064	8036
1736.481	7812
1740.893	7669
1745.301	7447
1749.705	7277
1754.105	7055
1758.501	6834
1762.893	6642
1767.28	6501
1771.663	6380
1776.042	6307
1780.417	6271
1784.787	6275
1789.154	6302
1793.516	6427
1797.874	6506
1802.228	6648
1806.578	6683
1810.924	6679
1815.266	6598
1819.603	6539
1823.937	6395
1828.266	6285
1832.591	6175
1836.913	6115
1841.23	6063
1845.543	6014
1849.852	5998
1854.156	5965
1858.457	5957
1862.754	5955
1867.047	5927
1871.335	5909
1875.62	5944
1879.9	5891
1884.177	5858
1888.449	5834
1892.718	5782
1896.982	5721
1901.243	5694
1905.499	5631
1909.752	5632
1914	5660
1918.245	5621
1922.485	5691
1926.722	5739
1930.954	5801
1935.183	5894
1939.408	5928
1943.628	5932
1947.845	5986
1952.058	5951
1956.267	5878
1960.472	5805
1964.673	5737
1968.87	5638
1973.063	5522
1977.252	5462
1981.438	5428
1985.619	5345
1989.797	5309
1993.971	5280
1998.14	5228
2002.306	5239
2006.469	5215
2010.627	5207
2014.781	5141
2018.932	5089
2023.078	5064
2027.221	4986
2031.36	4952
2035.495	4869
2039.627	4766
2043.754	4719
2047.878	4668
2051.998	4658
2056.114	4648
2060.226	4640
2064.334	4626
2068.439	4642
2072.54	4685
2076.637	4736
2080.73	4744
2084.82	4777
2088.906	4785
2092.988	4800
2097.066	4766
2101.14	4717
2105.211	4713
2109.278	4669
2113.342	4644
2117.401	4643
2121.457	4585
2125.509	4588
2129.558	4566
2133.602	4537
2137.643	4470
2141.681	4485
2145.714	4450
2149.744	4389
2153.77	4402
2157.793	4304
2161.812	4248
2165.827	4193
2169.838	4131
2173.846	4088
2177.851	3978
2181.851	3996
2185.848	3906
2189.841	3871
2193.831	3810
2197.817	3783
2201.799	3790
2205.778	3733
2209.753	3718
2213.725	3741
2217.693	3721
2221.657	3721
2225.618	3693
2229.575	3672
2233.529	3632
2237.479	3595
2241.425	3585
2245.368	3509
2249.307	3446
2253.243	3411
2257.175	3376
2261.104	3288
2265.029	3315
2268.95	3249
2272.868	3201
2276.783	3178
2280.694	3134
2284.601	3123
2288.505	3086
2292.405	3014
2296.302	3043
2300.195	3010
2304.085	2932
2307.971	2891
2311.854	2813
2315.734	2815
2319.609	2787
2323.482	2743
2327.351	2687
2331.216	2706
2335.078	2686
2338.937	2631
2342.792	2637
2346.643	2629
2350.492	2601
2354.336	2616
2358.178	2626
2362.015	2624
2365.85	2638
2369.681	2613
2373.508	2653
2377.333	2626
2381.153	2626
2384.971	2595
2388.785	2584
2392.595	2557
2396.402	2533
2400.206	2527
2404.007	2505
2407.804	2489
2411.597	2452
2415.388	2447
2419.174	2431
2422.958	2403
2426.738	2384
2430.515	2383
2434.289	2352
2438.059	2328
2441.825	2322
2445.589	2283
2449.349	2252
2453.106	2257
2456.859	2219
2460.61	2188
2464.356	2166
2468.1	2142
2471.84	2126
2475.577	2104
2479.311	2097
2483.041	2078
2486.768	2055
2490.492	2062
2494.213	2044
2497.93	2048
2501.644	2039
2505.355	2047
2509.062	2022
2512.766	1988
2516.467	2000
2520.165	1971
2523.859	1977
2527.551	1954
2531.239	1946
2534.923	1938
2538.605	1950
2542.283	1925
2545.958	1929
2549.63	1906
2553.299	1930
2556.964	1885
2560.626	1895
2564.285	1901
2567.941	1874
2571.594	1895
2575.243	1855
2578.89	1835
2582.533	1831
2586.173	1816
2589.809	1810
2593.443	1784
2597.073	1759
2600.701	1736
2604.325	1724
2607.946	1734
2611.564	1712
2615.178	1708
2618.79	1689
2622.398	1677
2626.004	1656
2629.606	1638
2633.205	1624
2636.801	1591
2640.394	1594
2643.983	1548
2647.57	1533
2651.153	1501
2654.734	1467
2658.311	1449
2661.885	1401
2665.456	1417
2669.025	1395
2672.589	1356
2676.151	1340
2679.71	1340
2683.266	1334
2686.819	1310
2690.368	1282
2693.915	1243
2697.458	1230
2700.999	1184
2704.536	1164
2708.071	1150
2711.602	1108
2715.13	1113
2718.656	1076
2722.178	1053
2725.697	1044
2729.214	1027
2732.727	1028
2736.237	1028
2739.744	1010
2743.249	1022
2746.75	1031
2750.248	1043
2753.743	1047
2757.236	1070
2760.725	1050
2764.211	1073
2767.695	1079
2771.175	1090
2774.652	1065
2778.127	1067
2781.598	1059
2785.067	1067
2788.532	1067
2791.995	1047
2795.455	1045
2798.911	1046
2802.365	1053
2805.816	1042
2809.264	1056
2812.709	1053
2816.151	1036
2819.59	1042
2823.026	1048
2826.46	1057
2829.89	1043
2833.318	1063
2836.742	1063
2840.164	1071
2843.583	1060
2846.999	1085
2850.412	1081
2853.822	1098
2857.229	1120
2860.634	1131
2864.035	1149
2867.434	1174
2870.83	1203
2874.223	1214
2877.613	1235
2881	1286
2884.385	1252
2887.766	1255
2891.145	1256
2894.521	1253
2897.894	1245
2901.264	1251
2904.631	1251
2907.996	1248
2911.358	1270
2914.717	1259
2918.073	1295
2921.426	1288
2924.777	1294
2928.124	1335
2931.469	1349
2934.811	1382
2938.15	1396
2941.487	1389
2944.821	1407
2948.152	1422
2951.48	1403
2954.805	1395
2958.128	1379
2961.447	1375
2964.765	1366
2968.079	1390
2971.39	1382
2974.699	1417
2978.005	1434
2981.308	1434
2984.609	1485
2987.907	1491
2991.202	1516
2994.494	1554
2997.784	1589
3001.07	1630
3004.355	1623
3007.636	1647
3010.915	1669
3014.191	1684
3017.464	1692
3020.734	1713
3024.002	1717
3027.267	1755
3030.53	1751
3033.789	1774
3037.046	1783
3040.301	1810
3043.552	1860
3046.801	1898
3050.048	1922
3053.291	1976
3056.532	2040
3059.771	2103
3063.006	2138
3066.239	2221
3069.469	2306
3072.697	2344
3075.922	2404
3079.144	2469
3082.364	2518
3085.581	2577
3088.795	2624
3092.007	2688
3095.216	2759
3098.423	2781
3101.627	2882
3104.828	2934
3108.026	2958
3111.222	3060
3114.416	3120
3117.607	3167
3120.795	3269
3123.98	3335
3127.163	3422
3130.344	3523
3133.521	3617
3136.696	3689
3139.869	3731
3143.039	3820
3146.206	3861
3149.371	3907
3152.533	3960
3155.693	3967
3158.85	3961
3162.005	4006
3165.157	4013
3168.306	4040
3171.453	4040
3174.597	4055
3177.739	4055
3180.878	4061
3184.014	4051
3187.149	4085
3190.28	4086
3193.409	4091
3196.536	4098
3199.659	4119
3202.781	4061
3205.9	4099
3209.016	4101
3212.13	4083
3215.241	4048
3218.35	3978
3221.456	3972
3224.56	3950
3227.661	3891
3230.76	3833
3233.856	3803
3236.95	3770
3240.041	3742
3243.13	3690
3246.216	3676
3249.3	3664
3252.382	3680
3255.46	3646
3258.537	3624
3261.611	3642
3264.682	3657
3267.751	3618
3270.818	3637
3273.882	3587
3276.943	3613
3280.002	3558
3283.059	3529
3286.113	3500
3289.165	3459
3292.214	3359
3295.261	3335
3298.306	3289
3301.348	3249
3304.387	3165
3307.425	3159
3310.459	3098
3313.492	3028
3316.521	3002
3319.549	2963
3322.574	2961
3325.597	2908
3328.617	2902
3331.635	2874
3334.65	2857
3337.663	2853
3340.674	2805
3343.682	2830
3346.688	2816
3349.691	2796
3352.692	2776
3355.691	2754
3358.687	2745
3361.681	2690
3364.673	2670
3367.662	2632
3370.649	2581
3373.633	2560
3376.615	2518
3379.595	2470
3382.572	2453
3385.547	2413
3388.52	2368
3391.49	2365
3394.458	2288
3397.424	2285
3400.387	2264
3403.348	2231
3406.307	2174
3409.263	2178
3412.217	2146
3415.168	2123
3418.118	2085
3421.065	2074
3424.009	2042
3426.951	2016
3429.891	1953
3432.829	1931
3435.764	1873
3438.697	1845
3441.628	1775
3444.557	1734
3447.483	1685
3450.407	1616
3453.328	1577
3456.247	1502
3459.164	1470
3462.079	1422
3464.991	1357
3467.902	1337
3470.809	1268
3473.715	1220
3476.618	1177
3479.519	1123
3482.418	1112
3485.315	1065
3488.209	1022
3491.101	979
3493.99	955
3496.878	897
3499.763	878
3502.646	856
3505.527	814
3508.405	774
3511.281	732
3514.155	700
3517.027	654
3519.897	601
3522.764	562
3525.629	524
3528.492	492
3531.352	442
3534.211	415
3537.067	362
3539.921	343
3542.773	297
3545.622	251
3548.469	242
3551.315	203
3554.157	178
3556.998	152
3559.837	130
3562.673	101
3565.507	75
3568.339	54
3571.169	38
3573.996	8
3576.822	-3
3579.645	-33
3582.466	-55
3585.285	-72
3588.101	-94
3590.916	-102
3593.728	-138
3596.538	-139
3599.346	-168
3602.152	-185
3604.956	-199
3607.757	-214
3610.556	-220
3613.354	-242
3616.149	-260
3618.942	-266
3621.732	-277
3624.521	-286
3627.307	-301
3630.092	-310
3632.874	-325
3635.654	-329
3638.432	-341
3641.208	-345
3643.982	-361
3646.753	-370
3649.523	-380
3652.29	-387
3655.055	-392
3657.818	-411
3660.579	-419
3663.338	-433
3666.095	-437
3668.849	-445
3671.602	-462
3674.352	-462
3677.101	-469
3679.847	-480
3682.591	-483
3685.333	-485
3688.073	-487
3690.811	-501
3693.547	-501
3696.281	-514
3699.013	-519
3701.742	-521
3704.47	-528
3707.195	-533
3709.919	-535
3712.64	-542
3715.359	-538
3718.076	-554
3720.792	-549
3723.505	-549
3726.216	-560
3728.925	-559
3731.632	-556
3734.336	-569
3737.039	-565
3739.74	-568
3742.439	-572
3745.136	-570
3747.83	-574
3750.523	-572
3753.213	-574
3755.902	-587
3758.589	-583
3761.273	-590
3763.956	-584
3766.636	-588
3769.315	-592
3771.991	-592
3774.665	-602
3777.338	-596
3780.008	-602
3782.677	-598
3785.343	-601
3788.007	-601
3790.67	-607
3793.33	-609
3795.989	-603
3798.645	-605
3801.299	-604
3803.952	-610
3806.602	-615
3809.251	-617
3811.897	-611
3814.542	-608
3817.184	-610
3819.825	-609
3822.463	-606
3825.1	-617
3827.735	-613
3830.367	-611
3832.998	-629
3835.627	-626
3838.253	-629
3840.878	-626
3843.501	-628
3846.122	-621
3848.741	-624
3851.358	-621
3853.973	-623
3856.586	-627
3859.197	-627
3861.806	-625
3864.414	-618
3867.019	-620
3869.622	-628
3872.224	-615
3874.823	-602
3877.421	-592
3880.016	-576
3882.61	-552
3885.202	-553
3887.792	-563
3890.38	-595
3892.966	-618
3895.55	-624
3898.132	-638
3900.713	-643
3903.291	-637
3905.868	-635
3908.442	-642
3911.015	-643
3913.586	-638
3916.155	-637
3918.722	-639
3921.287	-640
3923.85	-647
3926.411	-639
3928.971	-646
3931.528	-639
3934.084	-643
3936.638	-636
3939.19	-642
3941.74	-639
3944.288	-646
3946.834	-638
3949.378	-641
3951.921	-645
3954.462	-650
3957	-637
3959.537	-643
3962.072	-640
3964.606	-641
3967.137	-640
3969.667	-644
3972.194	-635
3974.72	-640
3977.244	-629
3979.766	-629
3982.286	-631
3984.805	-628
3987.321	-628
3989.836	-635
3992.349	-620
3994.86	-625
3997.369	-637
3999.877	-624
4002.382	-626
4004.886	-626
4007.388	-623
4009.888	-625
4012.386	-633
4014.883	-623
4017.377	-629
4019.87	-619
4022.361	-620
4024.85	-629
4027.338	-625
4029.823	-629
4032.307	-634
4034.789	-632
4037.269	-624
4039.747	-625
4042.224	-631
4044.699	-629
4047.172	-628
4049.643	-632
4052.112	-639
4054.58	-635
4057.046	-637
4059.51	-637
4061.972	-635
4064.432	-640
4066.891	-627
4069.348	-631
4071.803	-626
4074.256	-624
4076.708	-630
4079.158	-632
4081.606	-634
4084.052	-634
4086.497	-633
4088.939	-629
4091.38	-630
4093.819	-630
4096.257	-662
4098.693	-665
4101.127	-666
4103.559	-665
4105.989	-388
4108.418	-355
4110.845	-338
4113.27	-315
4115.694	-280
4118.115	-224
4120.535	-629
4122.954	-631
4125.37	-619
4127.785	-634
4130.198	-630
4132.609	-631
4135.019	-665
4137.427	-668
4139.833	-666
4142.237	-662
