Data from 2018-2-14_conc=2_n=9_RamanShift_03.txt Node
Date: Wed Feb 14 11:30:26 IST 2018
User: aro
Spectrometer: QEPB0276
Trigger mode: 0
Integration Time (sec): 3.000000E1
Scans to average: 1
Electric dark correction enabled: true
Nonlinearity correction enabled: false
Boxcar width: 0
XAxis mode: Raman Shifts
Number of Pixels in Spectrum: 1044
>>>>>Begin Spectral Data<<<<<
160.701	-145
166.742	34
172.777	605
178.805	2284
184.826	6293
190.841	13190
196.849	21210
202.85	26881
208.845	28761
214.833	28450
220.815	27939
226.789	27709
232.758	27581
238.719	27378
244.674	27026
250.623	26538
256.565	25900
262.5	25324
268.429	24896
274.351	24515
280.267	24172
286.176	23915
292.079	23697
297.975	23511
303.865	23193
309.748	23076
315.625	22955
321.495	22824
327.359	22702
333.217	22657
339.068	22681
344.912	22594
350.751	22609
356.583	22574
362.408	22566
368.227	22545
374.04	22520
379.847	22593
385.647	22714
391.44	22767
397.228	22966
403.009	22917
408.784	23047
414.553	23057
420.315	23162
426.071	23202
431.821	23182
437.565	23135
443.302	23079
449.033	23022
454.758	22983
460.477	22896
466.189	22894
471.896	22883
477.596	22748
483.29	22714
488.978	22651
494.66	22592
500.335	22445
506.005	22224
511.668	21998
517.325	21738
522.977	21484
528.622	21307
534.261	21206
539.894	21088
545.521	21025
551.141	20860
556.756	20874
562.365	20761
567.968	20667
573.565	20657
579.155	20508
584.74	20436
590.319	20332
595.892	20270
601.459	20176
607.02	20115
612.575	20004
618.124	19815
623.667	19725
629.204	19686
634.735	19592
640.261	19492
645.781	19417
651.294	19344
656.802	19311
662.304	19322
667.8	19236
673.29	19250
678.775	19199
684.254	19116
689.726	19019
695.193	19002
700.655	18928
706.11	18882
711.56	18721
717.004	18644
722.442	18530
727.874	18507
733.301	18425
738.722	18328
744.137	18340
749.547	18275
754.951	18321
760.349	18314
765.741	18276
771.128	18317
776.509	18359
781.885	18374
787.254	18313
792.618	18210
797.977	18107
803.33	17969
808.677	17857
814.019	17797
819.355	17698
824.686	17628
830.011	17584
835.33	17561
840.644	17615
845.952	17614
851.255	17672
856.552	17654
861.844	17634
867.13	17525
872.41	17466
877.686	17435
882.955	17300
888.219	17098
893.478	16888
898.731	16704
903.979	16547
909.221	16434
914.458	16370
919.69	16343
924.916	16433
930.136	16547
935.351	16488
940.561	16458
945.766	16394
950.965	16343
956.158	16227
961.347	16058
966.529	15862
971.707	15639
976.879	15470
982.046	15339
987.208	15308
992.364	15282
997.515	15388
1002.66	15552
1007.801	15745
1012.936	15789
1018.066	15880
1023.19	15809
1028.309	15844
1033.423	15815
1038.532	15700
1043.636	15599
1048.734	15381
1053.827	15171
1058.915	15044
1063.998	14931
1069.075	14927
1074.147	14876
1079.214	14923
1084.276	15033
1089.333	15125
1094.385	15154
1099.431	15196
1104.472	15202
1109.509	15167
1114.54	14972
1119.565	14744
1124.586	14589
1129.602	14464
1134.613	14293
1139.618	14252
1144.619	14229
1149.614	14139
1154.604	14260
1159.589	14265
1164.57	14288
1169.545	14330
1174.515	14294
1179.48	14265
1184.44	14152
1189.395	14052
1194.345	13929
1199.29	13879
1204.23	13870
1209.165	13900
1214.095	13991
1219.021	14070
1223.941	14118
1228.856	14200
1233.766	14253
1238.672	14287
1243.572	14266
1248.467	14179
1253.358	14016
1258.244	13800
1263.124	13550
1268	13345
1272.871	13208
1277.737	13117
1282.599	13039
1287.455	13071
1292.306	13094
1297.153	13148
1301.995	13196
1306.832	13232
1311.664	13249
1316.491	13238
1321.314	13098
1326.132	12871
1330.945	12633
1335.753	12302
1340.556	11999
1345.354	11757
1350.148	11572
1354.937	11463
1359.722	11501
1364.501	11540
1369.276	11710
1374.046	11828
1378.811	12077
1383.572	12173
1388.327	12244
1393.079	12126
1397.825	11968
1402.567	11790
1407.304	11590
1412.036	11519
1416.764	11420
1421.487	11364
1426.205	11289
1430.919	11214
1435.628	11240
1440.333	11282
1445.032	11275
1449.727	11345
1454.418	11296
1459.104	11215
1463.785	10961
1468.462	10771
1473.134	10553
1477.802	10311
1482.465	10165
1487.123	10049
1491.777	10064
1496.426	10080
1501.071	10227
1505.711	10412
1510.347	10551
1514.978	10748
1519.604	10908
1524.226	11032
1528.844	11043
1533.457	10978
1538.065	10945
1542.669	10906
1547.269	10865
1551.864	10689
1556.454	10715
1561.041	10693
1565.622	10668
1570.199	10663
1574.772	10704
1579.34	10781
1583.904	10841
1588.464	10926
1593.019	10851
1597.569	10857
1602.115	10761
1606.657	10698
1611.195	10631
1615.728	10558
1620.256	10550
1624.78	10531
1629.3	10521
1633.816	10566
1638.327	10661
1642.834	10701
1647.336	10750
1651.834	10778
1656.328	10734
1660.817	10666
1665.302	10546
1669.783	10421
1674.259	10133
1678.732	9851
1683.199	9545
1687.663	9221
1692.122	8948
1696.577	8841
1701.028	8811
1705.474	8859
1709.917	8920
1714.355	8973
1718.788	8939
1723.218	8768
1727.643	8615
1732.064	8507
1736.481	8275
1740.893	8040
1745.301	7852
1749.705	7640
1754.105	7439
1758.501	7221
1762.893	6994
1767.28	6848
1771.663	6665
1776.042	6563
1780.417	6499
1784.787	6495
1789.154	6581
1793.516	6699
1797.874	6848
1802.228	6968
1806.578	7073
1810.924	7041
1815.266	6963
1819.603	6849
1823.937	6746
1828.266	6633
1832.591	6526
1836.913	6435
1841.23	6361
1845.543	6340
1849.852	6311
1854.156	6270
1858.457	6274
1862.754	6268
1867.047	6252
1871.335	6241
1875.62	6215
1879.9	6226
1884.177	6179
1888.449	6119
1892.718	6073
1896.982	5988
1901.243	5935
1905.499	5896
1909.752	5847
1914	5876
1918.245	5907
1922.485	5956
1926.722	6043
1930.954	6070
1935.183	6170
1939.408	6243
1943.628	6248
1947.845	6296
1952.058	6228
1956.267	6206
1960.472	6092
1964.673	6003
1968.87	5929
1973.063	5844
1977.252	5749
1981.438	5704
1985.619	5674
1989.797	5591
1993.971	5567
1998.14	5518
2002.306	5507
2006.469	5503
2010.627	5442
2014.781	5417
2018.932	5384
2023.078	5302
2027.221	5275
2031.36	5177
2035.495	5104
2039.627	5006
2043.754	4938
2047.878	4909
2051.998	4892
2056.114	4878
2060.226	4849
2064.334	4860
2068.439	4892
2072.54	4887
2076.637	4930
2080.73	4992
2084.82	5009
2088.906	5021
2092.988	5035
2097.066	5017
2101.14	4966
2105.211	4933
2109.278	4916
2113.342	4884
2117.401	4854
2121.457	4856
2125.509	4806
2129.558	4784
2133.602	4757
2137.643	4720
2141.681	4730
2145.714	4694
2149.744	4656
2153.77	4615
2157.793	4542
2161.812	4503
2165.827	4454
2169.838	4397
2173.846	4303
2177.851	4233
2181.851	4192
2185.848	4117
2189.841	4083
2193.831	4042
2197.817	3991
2201.799	3992
2205.778	3946
2209.753	3927
2213.725	3947
2217.693	3916
2221.657	3906
2225.618	3908
2229.575	3879
2233.529	3824
2237.479	3774
2241.425	3769
2245.368	3697
2249.307	3673
2253.243	3614
2257.175	3567
2261.104	3487
2265.029	3478
2268.95	3458
2272.868	3394
2276.783	3362
2280.694	3323
2284.601	3277
2288.505	3247
2292.405	3221
2296.302	3211
2300.195	3157
2304.085	3130
2307.971	3062
2311.854	3019
2315.734	2994
2319.609	2921
2323.482	2908
2327.351	2893
2331.216	2866
2335.078	2861
2338.937	2807
2342.792	2787
2346.643	2802
2350.492	2774
2354.336	2789
2358.178	2787
2362.015	2806
2365.85	2819
2369.681	2799
2373.508	2808
2377.333	2816
2381.153	2796
2384.971	2788
2388.785	2738
2392.595	2705
2396.402	2708
2400.206	2670
2404.007	2678
2407.804	2633
2411.597	2642
2415.388	2603
2419.174	2580
2422.958	2593
2426.738	2547
2430.515	2533
2434.289	2511
2438.059	2492
2441.825	2464
2445.589	2454
2449.349	2436
2453.106	2399
2456.859	2359
2460.61	2338
2464.356	2313
2468.1	2291
2471.84	2270
2475.577	2240
2479.311	2233
2483.041	2221
2486.768	2211
2490.492	2177
2494.213	2208
2497.93	2191
2501.644	2198
2505.355	2177
2509.062	2167
2512.766	2127
2516.467	2141
2520.165	2110
2523.859	2106
2527.551	2089
2531.239	2077
2534.923	2064
2538.605	2066
2542.283	2072
2545.958	2049
2549.63	2044
2553.299	2066
2556.964	2031
2560.626	2035
2564.285	1989
2567.941	2028
2571.594	1997
2575.243	2004
2578.89	1949
2582.533	1959
2586.173	1942
2589.809	1926
2593.443	1898
2597.073	1912
2600.701	1876
2604.325	1865
2607.946	1840
2611.564	1814
2615.178	1836
2618.79	1827
2622.398	1785
2626.004	1789
2629.606	1743
2633.205	1746
2636.801	1704
2640.394	1679
2643.983	1653
2647.57	1638
2651.153	1615
2654.734	1572
2658.311	1579
2661.885	1535
2665.456	1512
2669.025	1502
2672.589	1471
2676.151	1455
2679.71	1444
2683.266	1434
2686.819	1402
2690.368	1376
2693.915	1344
2697.458	1315
2700.999	1276
2704.536	1259
2708.071	1243
2711.602	1206
2715.13	1169
2718.656	1132
2722.178	1126
2725.697	1121
2729.214	1133
2732.727	1086
2736.237	1083
2739.744	1089
2743.249	1096
2746.75	1102
2750.248	1103
2753.743	1105
2757.236	1159
2760.725	1150
2764.211	1161
2767.695	1157
2771.175	1124
2774.652	1142
2778.127	1132
2781.598	1132
2785.067	1120
2788.532	1128
2791.995	1125
2795.455	1127
2798.911	1116
2802.365	1118
2805.816	1119
2809.264	1115
2812.709	1135
2816.151	1123
2819.59	1125
2823.026	1122
2826.46	1141
2829.89	1129
2833.318	1128
2836.742	1126
2840.164	1153
2843.583	1152
2846.999	1163
2850.412	1175
2853.822	1184
2857.229	1195
2860.634	1213
2864.035	1222
2867.434	1261
2870.83	1285
2874.223	1297
2877.613	1324
2881	1316
2884.385	1334
2887.766	1347
2891.145	1330
2894.521	1337
2897.894	1320
2901.264	1318
2904.631	1367
2907.996	1340
2911.358	1353
2914.717	1348
2918.073	1388
2921.426	1385
2924.777	1406
2928.124	1410
2931.469	1454
2934.811	1477
2938.15	1482
2941.487	1491
2944.821	1498
2948.152	1497
2951.48	1495
2954.805	1484
2958.128	1466
2961.447	1452
2964.765	1474
2968.079	1453
2971.39	1463
2974.699	1489
2978.005	1498
2981.308	1534
2984.609	1541
2987.907	1568
2991.202	1609
2994.494	1658
2997.784	1673
3001.07	1715
3004.355	1742
3007.636	1754
3010.915	1803
3014.191	1793
3017.464	1811
3020.734	1836
3024.002	1846
3027.267	1838
3030.53	1843
3033.789	1887
3037.046	1897
3040.301	1912
3043.552	1974
3046.801	2009
3050.048	2084
3053.291	2095
3056.532	2145
3059.771	2206
3063.006	2257
3066.239	2370
3069.469	2419
3072.697	2478
3075.922	2553
3079.144	2604
3082.364	2641
3085.581	2721
3088.795	2761
3092.007	2833
3095.216	2897
3098.423	2944
3101.627	3026
3104.828	3068
3108.026	3137
3111.222	3204
3114.416	3299
3117.607	3369
3120.795	3433
3123.98	3510
3127.163	3586
3130.344	3697
3133.521	3766
3136.696	3872
3139.869	3957
3143.039	4005
3146.206	4052
3149.371	4121
3152.533	4146
3155.693	4172
3158.85	4217
3162.005	4247
3165.157	4219
3168.306	4239
3171.453	4241
3174.597	4249
3177.739	4252
3180.878	4278
3184.014	4283
3187.149	4255
3190.28	4283
3193.409	4331
3196.536	4312
3199.659	4316
3202.781	4339
3205.9	4339
3209.016	4311
3212.13	4266
3215.241	4274
3218.35	4213
3221.456	4175
3224.56	4158
3227.661	4066
3230.76	4048
3233.856	3986
3236.95	3963
3240.041	3933
3243.13	3897
3246.216	3873
3249.3	3852
3252.382	3861
3255.46	3850
3258.537	3845
3261.611	3836
3264.682	3820
3267.751	3816
3270.818	3821
3273.882	3831
3276.943	3797
3280.002	3756
3283.059	3730
3286.113	3716
3289.165	3645
3292.214	3590
3295.261	3506
3298.306	3452
3301.348	3424
3304.387	3353
3307.425	3291
3310.459	3254
3313.492	3207
3316.521	3156
3319.549	3119
3322.574	3101
3325.597	3083
3328.617	3062
3331.635	3037
3334.65	2994
3337.663	2982
3340.674	2977
3343.682	2976
3346.688	2967
3349.691	2952
3352.692	2926
3355.691	2906
3358.687	2895
3361.681	2853
3364.673	2833
3367.662	2783
3370.649	2753
3373.633	2698
3376.615	2665
3379.595	2602
3382.572	2602
3385.547	2534
3388.52	2506
3391.49	2474
3394.458	2447
3397.424	2415
3400.387	2376
3403.348	2329
3406.307	2312
3409.263	2284
3412.217	2297
3415.168	2231
3418.118	2222
3421.065	2188
3424.009	2144
3426.951	2149
3429.891	2075
3432.829	2034
3435.764	1989
3438.697	1955
3441.628	1879
3444.557	1841
3447.483	1786
3450.407	1701
3453.328	1690
3456.247	1622
3459.164	1564
3462.079	1518
3464.991	1435
3467.902	1416
3470.809	1338
3473.715	1291
3476.618	1254
3479.519	1210
3482.418	1182
3485.315	1120
3488.209	1097
3491.101	1061
3493.99	1027
3496.878	975
3499.763	938
3502.646	917
3505.527	877
3508.405	826
3511.281	769
3514.155	736
3517.027	695
3519.897	670
3522.764	607
3525.629	565
3528.492	512
3531.352	473
3534.211	443
3537.067	391
3539.921	364
3542.773	314
3545.622	279
3548.469	253
3551.315	222
3554.157	205
3556.998	175
3559.837	153
3562.673	123
3565.507	96
3568.339	70
3571.169	54
3573.996	30
3576.822	14
3579.645	-16
3582.466	-41
3585.285	-65
3588.101	-75
3590.916	-108
3593.728	-119
3596.538	-90
3599.346	34
3602.152	-167
3604.956	-192
3607.757	-213
3610.556	-228
3613.354	-240
3616.149	-266
3618.942	-274
3621.732	-281
3624.521	-297
3627.307	-306
3630.092	-317
3632.874	-335
3635.654	-345
3638.432	-351
3641.208	-358
3643.982	-369
3646.753	-375
3649.523	-385
3652.29	-393
3655.055	-411
3657.818	-415
3660.579	-428
3663.338	-440
3666.095	-449
3668.849	-461
3671.602	-473
3674.352	-485
3677.101	-482
3679.847	-494
3682.591	-504
3685.333	-512
3688.073	-517
3690.811	-522
3693.547	-529
3696.281	-528
3699.013	-533
3701.742	-536
3704.47	-546
3707.195	-553
3709.919	-555
3712.64	-558
3715.359	-554
3718.076	-567
3720.792	-570
3723.505	-571
3726.216	-578
3728.925	-584
3731.632	-587
3734.336	-587
3737.039	-589
3739.74	-588
3742.439	-591
3745.136	-597
3747.83	-604
3750.523	-599
3753.213	-588
3755.902	-607
3758.589	-606
3761.273	-613
3763.956	-617
3766.636	-619
3769.315	-617
3771.991	-612
3774.665	-624
3777.338	-619
3780.008	-625
3782.677	-628
3785.343	-621
3788.007	-621
3790.67	-634
3793.33	-630
3795.989	-630
3798.645	-627
3801.299	-627
3803.952	-636
3806.602	-641
3809.251	-648
3811.897	-640
3814.542	-643
3817.184	-642
3819.825	-636
3822.463	-634
3825.1	-644
3827.735	-636
3830.367	-639
3832.998	-649
3835.627	-648
3838.253	-647
3840.878	-644
3843.501	-644
3846.122	-647
3848.741	-651
3851.358	-650
3853.973	-650
3856.586	-656
3859.197	-653
3861.806	-653
3864.414	-654
3867.019	-655
3869.622	-652
3872.224	-648
3874.823	-632
3877.421	-616
3880.016	-602
3882.61	-586
3885.202	-575
3887.792	-586
3890.38	-622
3892.966	-638
3895.55	-654
3898.132	-663
3900.713	-659
3903.291	-669
3905.868	-667
3908.442	-663
3911.015	-670
3913.586	-664
3916.155	-662
3918.722	-669
3921.287	-663
3923.85	-671
3926.411	-666
3928.971	-673
3931.528	-665
3934.084	-668
3936.638	-661
3939.19	-666
3941.74	-666
3944.288	-673
3946.834	-661
3949.378	-669
3951.921	-673
3954.462	-679
3957	-666
3959.537	-666
3962.072	-669
3964.606	-667
3967.137	-669
3969.667	-672
3972.194	-664
3974.72	-662
3977.244	-662
3979.766	-660
3982.286	-661
3984.805	-656
3987.321	-653
3989.836	-666
3992.349	-653
3994.86	-653
3997.369	-658
3999.877	-653
4002.382	-655
4004.886	-654
4007.388	-647
4009.888	-648
4012.386	-651
4014.883	-653
4017.377	-650
4019.87	-655
4022.361	-653
4024.85	-655
4027.338	-655
4029.823	-658
4032.307	-662
4034.789	-649
4037.269	-658
4039.747	-661
4042.224	-665
4044.699	-657
4047.172	-654
4049.643	-652
4052.112	-661
4054.58	-659
4057.046	-662
4059.51	-660
4061.972	-658
4064.432	-660
4066.891	-656
4069.348	-653
4071.803	-650
4074.256	-653
4076.708	-657
4079.158	-654
4081.606	-660
4084.052	-668
4086.497	-657
4088.939	-656
4091.38	-655
4093.819	-654
4096.257	-692
4098.693	-694
4101.127	-690
4103.559	-689
4105.989	-405
4108.418	-381
4110.845	-354
4113.27	-323
4115.694	-289
4118.115	-235
4120.535	-655
4122.954	-655
4125.37	-652
4127.785	-659
4130.198	-657
4132.609	-660
4135.019	-695
4137.427	-694
4139.833	-697
4142.237	-692
