Data from 2018-2-14_conc=2_n=5_RamanShift_04.txt Node
Date: Wed Feb 14 11:15:56 IST 2018
User: aro
Spectrometer: QEPB0276
Trigger mode: 0
Integration Time (sec): 3.000000E1
Scans to average: 1
Electric dark correction enabled: true
Nonlinearity correction enabled: false
Boxcar width: 0
XAxis mode: Raman Shifts
Number of Pixels in Spectrum: 1044
>>>>>Begin Spectral Data<<<<<
160.701	-143
166.742	51
172.777	601
178.805	2303
184.826	6386
190.841	13416
196.849	21646
202.85	27436
208.845	29438
214.833	29088
220.815	28588
226.789	28331
232.758	28285
238.719	28048
244.674	27642
250.623	27241
256.565	26603
262.5	26108
268.429	25575
274.351	25208
280.267	24884
286.176	24585
292.079	24371
297.975	24095
303.865	23920
309.748	23753
315.625	23590
321.495	23408
327.359	23402
333.217	23287
339.068	23258
344.912	23317
350.751	23259
356.583	23192
362.408	23217
368.227	23192
374.04	23267
379.847	23256
385.647	23360
391.44	23451
397.228	23604
403.009	23644
408.784	23688
414.553	23749
420.315	23828
426.071	23817
431.821	23894
437.565	23835
443.302	23775
449.033	23667
454.758	23703
460.477	23667
466.189	23556
471.896	23549
477.596	23461
483.29	23431
488.978	23376
494.66	23313
500.335	23114
506.005	22891
511.668	22647
517.325	22360
522.977	22104
528.622	22024
534.261	21828
539.894	21741
545.521	21592
551.141	21527
556.756	21549
562.365	21435
567.968	21321
573.565	21309
579.155	21152
584.74	21050
590.319	20984
595.892	20912
601.459	20862
607.02	20709
612.575	20577
618.124	20511
623.667	20404
629.204	20279
634.735	20190
640.261	20048
645.781	20015
651.294	20006
656.802	19988
662.304	19941
667.8	19864
673.29	19837
678.775	19748
684.254	19693
689.726	19657
695.193	19649
700.655	19515
706.11	19431
711.56	19271
717.004	19207
722.442	19134
727.874	19045
733.301	19024
738.722	18964
744.137	18922
749.547	18850
754.951	18856
760.349	18960
765.741	18869
771.128	18893
776.509	18926
781.885	18930
787.254	18901
792.618	18781
797.977	18675
803.33	18556
808.677	18459
814.019	18311
819.355	18209
824.686	18230
830.011	18084
835.33	18106
840.644	18078
845.952	18113
851.255	18212
856.552	18164
861.844	18172
867.13	18121
872.41	17996
877.686	18019
882.955	17823
888.219	17649
893.478	17507
898.731	17216
903.979	17033
909.221	17007
914.458	16965
919.69	16877
924.916	16914
930.136	17032
935.351	17005
940.561	17027
945.766	16970
950.965	16862
956.158	16765
961.347	16552
966.529	16385
971.707	16178
976.879	15996
982.046	15846
987.208	15862
992.364	15809
997.515	15892
1002.66	16007
1007.801	16213
1012.936	16320
1018.066	16380
1023.19	16361
1028.309	16298
1033.423	16257
1038.532	16205
1043.636	16030
1048.734	15920
1053.827	15660
1058.915	15459
1063.998	15408
1069.075	15358
1074.147	15340
1079.214	15425
1084.276	15562
1089.333	15580
1094.385	15674
1099.431	15746
1104.472	15666
1109.509	15629
1114.54	15427
1119.565	15225
1124.586	15048
1129.602	14861
1134.613	14740
1139.618	14677
1144.619	14638
1149.614	14617
1154.604	14656
1159.589	14732
1164.57	14753
1169.545	14767
1174.515	14740
1179.48	14683
1184.44	14629
1189.395	14462
1194.345	14354
1199.29	14302
1204.23	14325
1209.165	14340
1214.095	14426
1219.021	14532
1223.941	14566
1228.856	14680
1233.766	14711
1238.672	14720
1243.572	14699
1248.467	14544
1253.358	14399
1258.244	14246
1263.124	13993
1268	13816
1272.871	13572
1277.737	13555
1282.599	13466
1287.455	13442
1292.306	13481
1297.153	13515
1301.995	13587
1306.832	13605
1311.664	13612
1316.491	13614
1321.314	13530
1326.132	13322
1330.945	13028
1335.753	12723
1340.556	12395
1345.354	12141
1350.148	11929
1354.937	11761
1359.722	11743
1364.501	11822
1369.276	11959
1374.046	12110
1378.811	12295
1383.572	12433
1388.327	12535
1393.079	12453
1397.825	12346
1402.567	12112
1407.304	11966
1412.036	11838
1416.764	11735
1421.487	11712
1426.205	11634
1430.919	11586
1435.628	11584
1440.333	11608
1445.032	11617
1449.727	11645
1454.418	11658
1459.104	11503
1463.785	11300
1468.462	11054
1473.134	10800
1477.802	10583
1482.465	10406
1487.123	10275
1491.777	10242
1496.426	10326
1501.071	10383
1505.711	10549
1510.347	10763
1514.978	10938
1519.604	11116
1524.226	11243
1528.844	11244
1533.457	11229
1538.065	11194
1542.669	11063
1547.269	11051
1551.864	10944
1556.454	10940
1561.041	10906
1565.622	10928
1570.199	10910
1574.772	10958
1579.34	11071
1583.904	11125
1588.464	11137
1593.019	11117
1597.569	11099
1602.115	11025
1606.657	10965
1611.195	10922
1615.728	10819
1620.256	10741
1624.78	10779
1629.3	10787
1633.816	10838
1638.327	10827
1642.834	10907
1647.336	10937
1651.834	10958
1656.328	10941
1660.817	10901
1665.302	10790
1669.783	10568
1674.259	10348
1678.732	10076
1683.199	9764
1687.663	9400
1692.122	9145
1696.577	8956
1701.028	8903
1705.474	8940
1709.917	9066
1714.355	9092
1718.788	9083
1723.218	8940
1727.643	8780
1732.064	8600
1736.481	8426
1740.893	8222
1745.301	7999
1749.705	7826
1754.105	7550
1758.501	7324
1762.893	7153
1767.28	6930
1771.663	6834
1776.042	6677
1780.417	6573
1784.787	6608
1789.154	6688
1793.516	6781
1797.874	6892
1802.228	7002
1806.578	7118
1810.924	7106
1815.266	7052
1819.603	6964
1823.937	6808
1828.266	6745
1832.591	6670
1836.913	6551
1841.23	6473
1845.543	6428
1849.852	6420
1854.156	6369
1858.457	6382
1862.754	6361
1867.047	6360
1871.335	6362
1875.62	6344
1879.9	6315
1884.177	6264
1888.449	6225
1892.718	6134
1896.982	6095
1901.243	6068
1905.499	5953
1909.752	5920
1914	5963
1918.245	5954
1922.485	5995
1926.722	6072
1930.954	6128
1935.183	6213
1939.408	6292
1943.628	6325
1947.845	6323
1952.058	6327
1956.267	6240
1960.472	6195
1964.673	6096
1968.87	5991
1973.063	5900
1977.252	5848
1981.438	5742
1985.619	5728
1989.797	5649
1993.971	5607
1998.14	5642
2002.306	5607
2006.469	5562
2010.627	5540
2014.781	5541
2018.932	5450
2023.078	5420
2027.221	5329
2031.36	5258
2035.495	5158
2039.627	5092
2043.754	5038
2047.878	4958
2051.998	4968
2056.114	4924
2060.226	4932
2064.334	4923
2068.439	4937
2072.54	4969
2076.637	5013
2080.73	5046
2084.82	5068
2088.906	5070
2092.988	5064
2097.066	5059
2101.14	5029
2105.211	4999
2109.278	4961
2113.342	4919
2117.401	4922
2121.457	4890
2125.509	4898
2129.558	4846
2133.602	4777
2137.643	4788
2141.681	4756
2145.714	4753
2149.744	4693
2153.77	4706
2157.793	4635
2161.812	4579
2165.827	4474
2169.838	4435
2173.846	4362
2177.851	4270
2181.851	4219
2185.848	4175
2189.841	4141
2193.831	4110
2197.817	4075
2201.799	4030
2205.778	4023
2209.753	4006
2213.725	3996
2217.693	3978
2221.657	3962
2225.618	3952
2229.575	3939
2233.529	3872
2237.479	3868
2241.425	3817
2245.368	3755
2249.307	3720
2253.243	3675
2257.175	3623
2261.104	3552
2265.029	3527
2268.95	3500
2272.868	3449
2276.783	3410
2280.694	3359
2284.601	3337
2288.505	3297
2292.405	3261
2296.302	3259
2300.195	3212
2304.085	3150
2307.971	3117
2311.854	3069
2315.734	3037
2319.609	2993
2323.482	2954
2327.351	2918
2331.216	2901
2335.078	2887
2338.937	2859
2342.792	2856
2346.643	2851
2350.492	2854
2354.336	2862
2358.178	2862
2362.015	2855
2365.85	2873
2369.681	2852
2373.508	2873
2377.333	2867
2381.153	2827
2384.971	2820
2388.785	2781
2392.595	2774
2396.402	2763
2400.206	2753
2404.007	2715
2407.804	2722
2411.597	2681
2415.388	2676
2419.174	2672
2422.958	2625
2426.738	2609
2430.515	2591
2434.289	2578
2438.059	2529
2441.825	2550
2445.589	2515
2449.349	2472
2453.106	2439
2456.859	2386
2460.61	2377
2464.356	2346
2468.1	2324
2471.84	2313
2475.577	2275
2479.311	2277
2483.041	2250
2486.768	2232
2490.492	2249
2494.213	2204
2497.93	2197
2501.644	2207
2505.355	2214
2509.062	2176
2512.766	2206
2516.467	2157
2520.165	2153
2523.859	2126
2527.551	2106
2531.239	2094
2534.923	2092
2538.605	2080
2542.283	2066
2545.958	2079
2549.63	2066
2553.299	2074
2556.964	2073
2560.626	2034
2564.285	2034
2567.941	2032
2571.594	1998
2575.243	2020
2578.89	1975
2582.533	1970
2586.173	1967
2589.809	1947
2593.443	1922
2597.073	1906
2600.701	1911
2604.325	1868
2607.946	1848
2611.564	1856
2615.178	1862
2618.79	1844
2622.398	1800
2626.004	1807
2629.606	1775
2633.205	1757
2636.801	1729
2640.394	1704
2643.983	1664
2647.57	1656
2651.153	1647
2654.734	1606
2658.311	1569
2661.885	1530
2665.456	1539
2669.025	1534
2672.589	1496
2676.151	1468
2679.71	1470
2683.266	1440
2686.819	1432
2690.368	1399
2693.915	1350
2697.458	1321
2700.999	1287
2704.536	1275
2708.071	1257
2711.602	1231
2715.13	1188
2718.656	1176
2722.178	1160
2725.697	1137
2729.214	1112
2732.727	1138
2736.237	1122
2739.744	1088
2743.249	1110
2746.75	1111
2750.248	1125
2753.743	1118
2757.236	1140
2760.725	1143
2764.211	1176
2767.695	1159
2771.175	1172
2774.652	1166
2778.127	1146
2781.598	1149
2785.067	1141
2788.532	1128
2791.995	1120
2795.455	1119
2798.911	1134
2802.365	1117
2805.816	1134
2809.264	1130
2812.709	1128
2816.151	1132
2819.59	1127
2823.026	1133
2826.46	1135
2829.89	1156
2833.318	1150
2836.742	1152
2840.164	1144
2843.583	1154
2846.999	1169
2850.412	1178
2853.822	1195
2857.229	1199
2860.634	1232
2864.035	1266
2867.434	1274
2870.83	1284
2874.223	1302
2877.613	1328
2881	1351
2884.385	1358
2887.766	1367
2891.145	1356
2894.521	1366
2897.894	1360
2901.264	1352
2904.631	1348
2907.996	1369
2911.358	1369
2914.717	1382
2918.073	1393
2921.426	1393
2924.777	1409
2928.124	1430
2931.469	1461
2934.811	1516
2938.15	1498
2941.487	1537
2944.821	1521
2948.152	1530
2951.48	1497
2954.805	1488
2958.128	1500
2961.447	1493
2964.765	1485
2968.079	1495
2971.39	1482
2974.699	1536
2978.005	1534
2981.308	1579
2984.609	1591
2987.907	1608
2991.202	1635
2994.494	1677
2997.784	1726
3001.07	1757
3004.355	1767
3007.636	1791
3010.915	1828
3014.191	1821
3017.464	1846
3020.734	1876
3024.002	1870
3027.267	1877
3030.53	1890
3033.789	1914
3037.046	1967
3040.301	1973
3043.552	2024
3046.801	2030
3050.048	2088
3053.291	2150
3056.532	2201
3059.771	2254
3063.006	2341
3066.239	2394
3069.469	2471
3072.697	2551
3075.922	2594
3079.144	2637
3082.364	2709
3085.581	2762
3088.795	2827
3092.007	2890
3095.216	2974
3098.423	3006
3101.627	3107
3104.828	3147
3108.026	3219
3111.222	3293
3114.416	3361
3117.607	3453
3120.795	3503
3123.98	3605
3127.163	3662
3130.344	3763
3133.521	3862
3136.696	3942
3139.869	4027
3143.039	4106
3146.206	4152
3149.371	4178
3152.533	4216
3155.693	4250
3158.85	4295
3162.005	4295
3165.157	4299
3168.306	4332
3171.453	4316
3174.597	4320
3177.739	4351
3180.878	4358
3184.014	4363
3187.149	4365
3190.28	4408
3193.409	4410
3196.536	4392
3199.659	4414
3202.781	4408
3205.9	4433
3209.016	4407
3212.13	4392
3215.241	4363
3218.35	4316
3221.456	4292
3224.56	4244
3227.661	4195
3230.76	4150
3233.856	4108
3236.95	4099
3240.041	4031
3243.13	3999
3246.216	3982
3249.3	3932
3252.382	3943
3255.46	3931
3258.537	3933
3261.611	3943
3264.682	3924
3267.751	3925
3270.818	3917
3273.882	3897
3276.943	3898
3280.002	3843
3283.059	3786
3286.113	3782
3289.165	3725
3292.214	3659
3295.261	3606
3298.306	3536
3301.348	3495
3304.387	3439
3307.425	3385
3310.459	3343
3313.492	3277
3316.521	3228
3319.549	3188
3322.574	3167
3325.597	3122
3328.617	3129
3331.635	3078
3334.65	3086
3337.663	3036
3340.674	3048
3343.682	3021
3346.688	3028
3349.691	3030
3352.692	3001
3355.691	2968
3358.687	2943
3361.681	2915
3364.673	2872
3367.662	2813
3370.649	2782
3373.633	2748
3376.615	2719
3379.595	2658
3382.572	2657
3385.547	2601
3388.52	2566
3391.49	2524
3394.458	2507
3397.424	2438
3400.387	2420
3403.348	2393
3406.307	2372
3409.263	2340
3412.217	2320
3415.168	2284
3418.118	2252
3421.065	2222
3424.009	2193
3426.951	2163
3429.891	2116
3432.829	2076
3435.764	2047
3438.697	1975
3441.628	1923
3444.557	1875
3447.483	1810
3450.407	1766
3453.328	1693
3456.247	1648
3459.164	1585
3462.079	1536
3464.991	1473
3467.902	1433
3470.809	1353
3473.715	1323
3476.618	1281
3479.519	1206
3482.418	1192
3485.315	1162
3488.209	1117
3491.101	1079
3493.99	1036
3496.878	995
3499.763	964
3502.646	930
3505.527	868
3508.405	842
3511.281	799
3514.155	756
3517.027	710
3519.897	679
3522.764	632
3525.629	582
3528.492	520
3531.352	486
3534.211	439
3537.067	406
3539.921	377
3542.773	330
3545.622	292
3548.469	261
3551.315	230
3554.157	195
3556.998	170
3559.837	145
3562.673	122
3565.507	102
3568.339	79
3571.169	46
3573.996	24
3576.822	-6
3579.645	-32
3582.466	-44
3585.285	-66
3588.101	-82
3590.916	-97
3593.728	-122
3596.538	-147
3599.346	-167
3602.152	-187
3604.956	-194
3607.757	-217
3610.556	-236
3613.354	-250
3616.149	-266
3618.942	-280
3621.732	-286
3624.521	-298
3627.307	-311
3630.092	-326
3632.874	-333
3635.654	-340
3638.432	-349
3641.208	-359
3643.982	-383
3646.753	-382
3649.523	-391
3652.29	-399
3655.055	-406
3657.818	-422
3660.579	-441
3663.338	-454
3666.095	-463
3668.849	-475
3671.602	-479
3674.352	-494
3677.101	-487
3679.847	-504
3682.591	-512
3685.333	-515
3688.073	-514
3690.811	-532
3693.547	-532
3696.281	-538
3699.013	-542
3701.742	-550
3704.47	-544
3707.195	-561
3709.919	-562
3712.64	-575
3715.359	-569
3718.076	-574
3720.792	-581
3723.505	-580
3726.216	-590
3728.925	-590
3731.632	-594
3734.336	-598
3737.039	-600
3739.74	-593
3742.439	-600
3745.136	-602
3747.83	-610
3750.523	-603
3753.213	-599
3755.902	-616
3758.589	-620
3761.273	-619
3763.956	-621
3766.636	-619
3769.315	-628
3771.991	-626
3774.665	-631
3777.338	-636
3780.008	-636
3782.677	-636
3785.343	-632
3788.007	-639
3790.67	-630
3793.33	-640
3795.989	-638
3798.645	-633
3801.299	-640
3803.952	-650
3806.602	-651
3809.251	-658
3811.897	-654
3814.542	-653
3817.184	-647
3819.825	-650
3822.463	-645
3825.1	-651
3827.735	-647
3830.367	-649
3832.998	-652
3835.627	-656
3838.253	-654
3840.878	-658
3843.501	-651
3846.122	-658
3848.741	-654
3851.358	-657
3853.973	-658
3856.586	-662
3859.197	-667
3861.806	-662
3864.414	-659
3867.019	-660
3869.622	-664
3872.224	-653
3874.823	-640
3877.421	-626
3880.016	-611
3882.61	-582
3885.202	-578
3887.792	-592
3890.38	-628
3892.966	-656
3895.55	-660
3898.132	-675
3900.713	-678
3903.291	-674
3905.868	-679
3908.442	-674
3911.015	-673
3913.586	-673
3916.155	-670
3918.722	-675
3921.287	-676
3923.85	-678
3926.411	-676
3928.971	-681
3931.528	-677
3934.084	-681
3936.638	-679
3939.19	-684
3941.74	-678
3944.288	-681
3946.834	-680
3949.378	-684
3951.921	-676
3954.462	-684
3957	-673
3959.537	-680
3962.072	-677
3964.606	-679
3967.137	-677
3969.667	-679
3972.194	-671
3974.72	-678
3977.244	-665
3979.766	-668
3982.286	-665
3984.805	-667
3987.321	-669
3989.836	-666
3992.349	-661
3994.86	-663
3997.369	-671
3999.877	-661
4002.382	-658
4004.886	-656
4007.388	-660
4009.888	-660
4012.386	-662
4014.883	-661
4017.377	-655
4019.87	-660
4022.361	-659
4024.85	-666
4027.338	-669
4029.823	-669
4032.307	-663
4034.789	-661
4037.269	-665
4039.747	-669
4042.224	-667
4044.699	-663
4047.172	-667
4049.643	-665
4052.112	-673
4054.58	-672
4057.046	-674
4059.51	-668
4061.972	-678
4064.432	-676
4066.891	-663
4069.348	-669
4071.803	-661
4074.256	-665
4076.708	-663
4079.158	-668
4081.606	-661
4084.052	-669
4086.497	-667
4088.939	-661
4091.38	-664
4093.819	-657
4096.257	-703
4098.693	-705
4101.127	-701
4103.559	-698
4105.989	-393
4108.418	-378
4110.845	-342
4113.27	-327
4115.694	-283
4118.115	-242
4120.535	-668
4122.954	-664
4125.37	-654
4127.785	-666
4130.198	-670
4132.609	-667
4135.019	-704
4137.427	-704
4139.833	-701
4142.237	-703
