Data from 2018-2-14_conc=3_n=6_RamanShift_03.txt Node
Date: Wed Feb 14 11:59:56 IST 2018
User: aro
Spectrometer: QEPB0276
Trigger mode: 0
Integration Time (sec): 3.000000E1
Scans to average: 1
Electric dark correction enabled: true
Nonlinearity correction enabled: false
Boxcar width: 0
XAxis mode: Raman Shifts
Number of Pixels in Spectrum: 1044
>>>>>Begin Spectral Data<<<<<
160.701	-151
166.742	45
172.777	603
178.805	2299
184.826	6365
190.841	13388
196.849	21485
202.85	27353
208.845	29149
214.833	28870
220.815	28336
226.789	28093
232.758	27974
238.719	27765
244.674	27299
250.623	26892
256.565	26354
262.5	25689
268.429	25318
274.351	24911
280.267	24565
286.176	24256
292.079	24058
297.975	23835
303.865	23679
309.748	23438
315.625	23394
321.495	23212
327.359	23084
333.217	23096
339.068	23044
344.912	23016
350.751	22958
356.583	22912
362.408	22962
368.227	22949
374.04	22969
379.847	22926
385.647	23090
391.44	23144
397.228	23228
403.009	23322
408.784	23415
414.553	23486
420.315	23572
426.071	23575
431.821	23597
437.565	23565
443.302	23477
449.033	23445
454.758	23392
460.477	23376
466.189	23286
471.896	23222
477.596	23172
483.29	23159
488.978	23120
494.66	23067
500.335	22907
506.005	22738
511.668	22433
517.325	22131
522.977	21932
528.622	21804
534.261	21667
539.894	21572
545.521	21480
551.141	21419
556.756	21284
562.365	21241
567.968	21146
573.565	21145
579.155	21025
584.74	20973
590.319	20911
595.892	20733
601.459	20729
607.02	20611
612.575	20519
618.124	20329
623.667	20285
629.204	20153
634.735	20070
640.261	19994
645.781	19919
651.294	19871
656.802	19814
662.304	19770
667.8	19756
673.29	19721
678.775	19656
684.254	19577
689.726	19580
695.193	19528
700.655	19393
706.11	19361
711.56	19241
717.004	19130
722.442	19009
727.874	18981
733.301	18876
738.722	18848
744.137	18811
749.547	18809
754.951	18797
760.349	18812
765.741	18805
771.128	18840
776.509	18852
781.885	18812
787.254	18807
792.618	18612
797.977	18593
803.33	18466
808.677	18354
814.019	18186
819.355	18128
824.686	18080
830.011	18048
835.33	18066
840.644	18068
845.952	18065
851.255	18138
856.552	18091
861.844	18121
867.13	18020
872.41	17926
877.686	17916
882.955	17745
888.219	17590
893.478	17436
898.731	17228
903.979	17016
909.221	16879
914.458	16871
919.69	16846
924.916	16899
930.136	16883
935.351	16970
940.561	17006
945.766	16933
950.965	16793
956.158	16727
961.347	16533
966.529	16325
971.707	16151
976.879	15877
982.046	15756
987.208	15752
992.364	15798
997.515	15832
1002.66	15989
1007.801	16182
1012.936	16289
1018.066	16269
1023.19	16271
1028.309	16272
1033.423	16237
1038.532	16141
1043.636	16007
1048.734	15843
1053.827	15671
1058.915	15452
1063.998	15384
1069.075	15321
1074.147	15340
1079.214	15370
1084.276	15452
1089.333	15567
1094.385	15606
1099.431	15728
1104.472	15667
1109.509	15619
1114.54	15400
1119.565	15234
1124.586	15032
1129.602	14863
1134.613	14735
1139.618	14683
1144.619	14632
1149.614	14635
1154.604	14633
1159.589	14780
1164.57	14748
1169.545	14808
1174.515	14748
1179.48	14699
1184.44	14567
1189.395	14470
1194.345	14377
1199.29	14307
1204.23	14283
1209.165	14346
1214.095	14429
1219.021	14452
1223.941	14570
1228.856	14648
1233.766	14719
1238.672	14762
1243.572	14717
1248.467	14603
1253.358	14449
1258.244	14245
1263.124	14022
1268	13778
1272.871	13699
1277.737	13499
1282.599	13482
1287.455	13498
1292.306	13472
1297.153	13568
1301.995	13607
1306.832	13691
1311.664	13656
1316.491	13642
1321.314	13494
1326.132	13335
1330.945	13052
1335.753	12725
1340.556	12421
1345.354	12125
1350.148	11948
1354.937	11845
1359.722	11824
1364.501	11871
1369.276	12046
1374.046	12188
1378.811	12427
1383.572	12570
1388.327	12533
1393.079	12544
1397.825	12404
1402.567	12202
1407.304	12017
1412.036	11869
1416.764	11824
1421.487	11730
1426.205	11649
1430.919	11626
1435.628	11651
1440.333	11660
1445.032	11701
1449.727	11748
1454.418	11714
1459.104	11560
1463.785	11360
1468.462	11146
1473.134	10908
1477.802	10705
1482.465	10539
1487.123	10432
1491.777	10378
1496.426	10440
1501.071	10558
1505.711	10725
1510.347	10919
1514.978	11098
1519.604	11266
1524.226	11396
1528.844	11391
1533.457	11380
1538.065	11339
1542.669	11233
1547.269	11155
1551.864	11051
1556.454	11048
1561.041	11017
1565.622	11012
1570.199	11042
1574.772	11101
1579.34	11147
1583.904	11193
1588.464	11206
1593.019	11215
1597.569	11183
1602.115	11124
1606.657	11025
1611.195	10966
1615.728	10901
1620.256	10859
1624.78	10806
1629.3	10844
1633.816	10913
1638.327	10933
1642.834	10983
1647.336	11091
1651.834	11132
1656.328	11064
1660.817	11004
1665.302	10921
1669.783	10762
1674.259	10557
1678.732	10277
1683.199	9905
1687.663	9589
1692.122	9292
1696.577	9141
1701.028	9120
1705.474	9167
1709.917	9285
1714.355	9361
1718.788	9300
1723.218	9124
1727.643	8967
1732.064	8740
1736.481	8628
1740.893	8386
1745.301	8142
1749.705	7978
1754.105	7689
1758.501	7523
1762.893	7306
1767.28	7116
1771.663	6993
1776.042	6858
1780.417	6796
1784.787	6799
1789.154	6886
1793.516	7014
1797.874	7154
1802.228	7211
1806.578	7319
1810.924	7318
1815.266	7253
1819.603	7147
1823.937	7069
1828.266	6945
1832.591	6829
1836.913	6758
1841.23	6643
1845.543	6594
1849.852	6579
1854.156	6551
1858.457	6524
1862.754	6554
1867.047	6520
1871.335	6528
1875.62	6471
1879.9	6480
1884.177	6433
1888.449	6384
1892.718	6320
1896.982	6272
1901.243	6219
1905.499	6186
1909.752	6146
1914	6154
1918.245	6150
1922.485	6210
1926.722	6255
1930.954	6365
1935.183	6464
1939.408	6480
1943.628	6516
1947.845	6543
1952.058	6533
1956.267	6481
1960.472	6391
1964.673	6317
1968.87	6208
1973.063	6104
1977.252	6000
1981.438	5931
1985.619	5906
1989.797	5826
1993.971	5794
1998.14	5733
2002.306	5748
2006.469	5741
2010.627	5664
2014.781	5628
2018.932	5632
2023.078	5549
2027.221	5491
2031.36	5415
2035.495	5324
2039.627	5255
2043.754	5159
2047.878	5135
2051.998	5135
2056.114	5112
2060.226	5076
2064.334	5085
2068.439	5132
2072.54	5134
2076.637	5175
2080.73	5251
2084.82	5244
2088.906	5261
2092.988	5267
2097.066	5253
2101.14	5206
2105.211	5188
2109.278	5139
2113.342	5103
2117.401	5074
2121.457	5062
2125.509	5022
2129.558	4996
2133.602	5010
2137.643	4968
2141.681	4932
2145.714	4900
2149.744	4848
2153.77	4808
2157.793	4781
2161.812	4723
2165.827	4621
2169.838	4585
2173.846	4487
2177.851	4411
2181.851	4360
2185.848	4311
2189.841	4223
2193.831	4224
2197.817	4133
2201.799	4150
2205.778	4117
2209.753	4117
2213.725	4093
2217.693	4100
2221.657	4088
2225.618	4070
2229.575	4069
2233.529	4034
2237.479	3979
2241.425	3919
2245.368	3863
2249.307	3836
2253.243	3737
2257.175	3685
2261.104	3654
2265.029	3622
2268.95	3580
2272.868	3534
2276.783	3514
2280.694	3487
2284.601	3453
2288.505	3407
2292.405	3385
2296.302	3330
2300.195	3289
2304.085	3262
2307.971	3232
2311.854	3170
2315.734	3121
2319.609	3066
2323.482	3031
2327.351	2995
2331.216	2980
2335.078	2971
2338.937	2949
2342.792	2901
2346.643	2905
2350.492	2929
2354.336	2898
2358.178	2912
2362.015	2943
2365.85	2919
2369.681	2911
2373.508	2936
2377.333	2918
2381.153	2897
2384.971	2895
2388.785	2873
2392.595	2816
2396.402	2823
2400.206	2801
2404.007	2763
2407.804	2758
2411.597	2755
2415.388	2722
2419.174	2714
2422.958	2697
2426.738	2672
2430.515	2644
2434.289	2620
2438.059	2590
2441.825	2591
2445.589	2549
2449.349	2497
2453.106	2486
2456.859	2468
2460.61	2439
2464.356	2403
2468.1	2381
2471.84	2350
2475.577	2336
2479.311	2322
2483.041	2323
2486.768	2284
2490.492	2280
2494.213	2301
2497.93	2283
2501.644	2278
2505.355	2244
2509.062	2274
2512.766	2233
2516.467	2233
2520.165	2211
2523.859	2196
2527.551	2180
2531.239	2161
2534.923	2166
2538.605	2144
2542.283	2145
2545.958	2133
2549.63	2123
2553.299	2138
2556.964	2135
2560.626	2091
2564.285	2090
2567.941	2088
2571.594	2064
2575.243	2053
2578.89	2034
2582.533	2051
2586.173	2032
2589.809	2026
2593.443	1993
2597.073	1969
2600.701	1951
2604.325	1940
2607.946	1911
2611.564	1914
2615.178	1899
2618.79	1883
2622.398	1871
2626.004	1879
2629.606	1830
2633.205	1794
2636.801	1800
2640.394	1776
2643.983	1730
2647.57	1715
2651.153	1671
2654.734	1654
2658.311	1632
2661.885	1579
2665.456	1567
2669.025	1553
2672.589	1536
2676.151	1530
2679.71	1511
2683.266	1476
2686.819	1482
2690.368	1430
2693.915	1406
2697.458	1385
2700.999	1341
2704.536	1313
2708.071	1288
2711.602	1272
2715.13	1235
2718.656	1192
2722.178	1202
2725.697	1175
2729.214	1170
2732.727	1142
2736.237	1156
2739.744	1129
2743.249	1145
2746.75	1161
2750.248	1163
2753.743	1178
2757.236	1192
2760.725	1214
2764.211	1218
2767.695	1217
2771.175	1214
2774.652	1222
2778.127	1200
2781.598	1201
2785.067	1175
2788.532	1183
2791.995	1180
2795.455	1167
2798.911	1168
2802.365	1169
2805.816	1153
2809.264	1174
2812.709	1194
2816.151	1169
2819.59	1168
2823.026	1162
2826.46	1172
2829.89	1182
2833.318	1198
2836.742	1185
2840.164	1206
2843.583	1182
2846.999	1221
2850.412	1228
2853.822	1232
2857.229	1240
2860.634	1279
2864.035	1281
2867.434	1305
2870.83	1341
2874.223	1366
2877.613	1369
2881	1379
2884.385	1382
2887.766	1387
2891.145	1381
2894.521	1372
2897.894	1392
2901.264	1389
2904.631	1375
2907.996	1374
2911.358	1383
2914.717	1399
2918.073	1409
2921.426	1417
2924.777	1450
2928.124	1451
2931.469	1492
2934.811	1496
2938.15	1551
2941.487	1552
2944.821	1559
2948.152	1546
2951.48	1523
2954.805	1509
2958.128	1498
2961.447	1497
2964.765	1492
2968.079	1503
2971.39	1512
2974.699	1526
2978.005	1546
2981.308	1578
2984.609	1597
2987.907	1654
2991.202	1682
2994.494	1703
2997.784	1739
3001.07	1757
3004.355	1802
3007.636	1813
3010.915	1856
3014.191	1851
3017.464	1875
3020.734	1875
3024.002	1886
3027.267	1921
3030.53	1909
3033.789	1919
3037.046	1966
3040.301	1982
3043.552	2014
3046.801	2060
3050.048	2106
3053.291	2171
3056.532	2199
3059.771	2276
3063.006	2305
3066.239	2400
3069.469	2480
3072.697	2533
3075.922	2608
3079.144	2657
3082.364	2712
3085.581	2757
3088.795	2853
3092.007	2901
3095.216	2958
3098.423	3013
3101.627	3065
3104.828	3170
3108.026	3209
3111.222	3303
3114.416	3370
3117.607	3454
3120.795	3538
3123.98	3601
3127.163	3662
3130.344	3760
3133.521	3864
3136.696	3941
3139.869	4013
3143.039	4079
3146.206	4156
3149.371	4206
3152.533	4244
3155.693	4273
3158.85	4286
3162.005	4289
3165.157	4326
3168.306	4327
3171.453	4336
3174.597	4344
3177.739	4350
3180.878	4366
3184.014	4374
3187.149	4388
3190.28	4379
3193.409	4379
3196.536	4408
3199.659	4435
3202.781	4402
3205.9	4427
3209.016	4418
3212.13	4379
3215.241	4351
3218.35	4323
3221.456	4275
3224.56	4219
3227.661	4190
3230.76	4155
3233.856	4105
3236.95	4077
3240.041	4035
3243.13	4013
3246.216	3969
3249.3	3954
3252.382	3955
3255.46	3915
3258.537	3947
3261.611	3935
3264.682	3912
3267.751	3937
3270.818	3911
3273.882	3915
3276.943	3891
3280.002	3856
3283.059	3814
3286.113	3776
3289.165	3732
3292.214	3638
3295.261	3585
3298.306	3525
3301.348	3481
3304.387	3399
3307.425	3365
3310.459	3304
3313.492	3257
3316.521	3218
3319.549	3190
3322.574	3152
3325.597	3125
3328.617	3107
3331.635	3082
3334.65	3055
3337.663	3034
3340.674	3021
3343.682	2980
3346.688	2988
3349.691	2999
3352.692	2954
3355.691	2936
3358.687	2928
3361.681	2898
3364.673	2848
3367.662	2805
3370.649	2761
3373.633	2739
3376.615	2693
3379.595	2649
3382.572	2599
3385.547	2576
3388.52	2552
3391.49	2481
3394.458	2464
3397.424	2422
3400.387	2401
3403.348	2352
3406.307	2352
3409.263	2308
3412.217	2287
3415.168	2256
3418.118	2252
3421.065	2214
3424.009	2193
3426.951	2126
3429.891	2108
3432.829	2067
3435.764	2004
3438.697	1955
3441.628	1903
3444.557	1860
3447.483	1803
3450.407	1733
3453.328	1704
3456.247	1632
3459.164	1584
3462.079	1527
3464.991	1478
3467.902	1414
3470.809	1355
3473.715	1328
3476.618	1266
3479.519	1240
3482.418	1192
3485.315	1147
3488.209	1115
3491.101	1067
3493.99	1033
3496.878	994
3499.763	946
3502.646	915
3505.527	870
3508.405	835
3511.281	788
3514.155	764
3517.027	707
3519.897	670
3522.764	608
3525.629	571
3528.492	528
3531.352	490
3534.211	450
3537.067	402
3539.921	372
3542.773	340
3545.622	289
3548.469	263
3551.315	230
3554.157	205
3556.998	167
3559.837	137
3562.673	112
3565.507	86
3568.339	75
3571.169	40
3573.996	22
3576.822	8
3579.645	-27
3582.466	-37
3585.285	-62
3588.101	-80
3590.916	-107
3593.728	-134
3596.538	-140
3599.346	-156
3602.152	-190
3604.956	-206
3607.757	-227
3610.556	-234
3613.354	-239
3616.149	-262
3618.942	-272
3621.732	-289
3624.521	-302
3627.307	-313
3630.092	-324
3632.874	-331
3635.654	-340
3638.432	-361
3641.208	-364
3643.982	-370
3646.753	-386
3649.523	-396
3652.29	-399
3655.055	-408
3657.818	-426
3660.579	-441
3663.338	-457
3666.095	-455
3668.849	-469
3671.602	-486
3674.352	-481
3677.101	-500
3679.847	-503
3682.591	-505
3685.333	-511
3688.073	-518
3690.811	-522
3693.547	-525
3696.281	-532
3699.013	-539
3701.742	-536
3704.47	-551
3707.195	-562
3709.919	-556
3712.64	-569
3715.359	-565
3718.076	-576
3720.792	-568
3723.505	-578
3726.216	-582
3728.925	-582
3731.632	-588
3734.336	-597
3737.039	-596
3739.74	-594
3742.439	-587
3745.136	-601
3747.83	-606
3750.523	-605
3753.213	-589
3755.902	-614
3758.589	-612
3761.273	-609
3763.956	-614
3766.636	-621
3769.315	-620
3771.991	-620
3774.665	-622
3777.338	-625
3780.008	-630
3782.677	-633
3785.343	-631
3788.007	-630
3790.67	-631
3793.33	-630
3795.989	-636
3798.645	-632
3801.299	-632
3803.952	-637
3806.602	-644
3809.251	-647
3811.897	-641
3814.542	-644
3817.184	-643
3819.825	-640
3822.463	-643
3825.1	-652
3827.735	-636
3830.367	-647
3832.998	-652
3835.627	-655
3838.253	-654
3840.878	-657
3843.501	-656
3846.122	-643
3848.741	-643
3851.358	-647
3853.973	-650
3856.586	-658
3859.197	-654
3861.806	-661
3864.414	-657
3867.019	-652
3869.622	-652
3872.224	-652
3874.823	-639
3877.421	-622
3880.016	-611
3882.61	-587
3885.202	-584
3887.792	-594
3890.38	-632
3892.966	-651
3895.55	-656
3898.132	-671
3900.713	-672
3903.291	-667
3905.868	-666
3908.442	-668
3911.015	-673
3913.586	-666
3916.155	-669
3918.722	-675
3921.287	-669
3923.85	-674
3926.411	-677
3928.971	-682
3931.528	-678
3934.084	-676
3936.638	-678
3939.19	-677
3941.74	-674
3944.288	-675
3946.834	-674
3949.378	-673
3951.921	-671
3954.462	-677
3957	-669
3959.537	-669
3962.072	-674
3964.606	-669
3967.137	-670
3969.667	-673
3972.194	-671
3974.72	-673
3977.244	-661
3979.766	-663
3982.286	-669
3984.805	-667
3987.321	-664
3989.836	-665
3992.349	-656
3994.86	-660
3997.369	-662
3999.877	-659
4002.382	-657
4004.886	-653
4007.388	-655
4009.888	-657
4012.386	-654
4014.883	-657
4017.377	-653
4019.87	-657
4022.361	-657
4024.85	-657
4027.338	-660
4029.823	-662
4032.307	-664
4034.789	-662
4037.269	-662
4039.747	-665
4042.224	-668
4044.699	-660
4047.172	-665
4049.643	-660
4052.112	-667
4054.58	-671
4057.046	-666
4059.51	-670
4061.972	-666
4064.432	-666
4066.891	-657
4069.348	-662
4071.803	-658
4074.256	-668
4076.708	-658
4079.158	-661
4081.606	-666
4084.052	-664
4086.497	-664
4088.939	-657
4091.38	-658
4093.819	-661
4096.257	-697
4098.693	-698
4101.127	-699
4103.559	-695
4105.989	-400
4108.418	-370
4110.845	-350
4113.27	-323
4115.694	-292
4118.115	-231
4120.535	-663
4122.954	-662
4125.37	-642
4127.785	-574
4130.198	-662
4132.609	-669
4135.019	-700
4137.427	-703
4139.833	-699
4142.237	-694
