Data from 2018-2-14_conc=6_n=5_RamanShift_02.txt Node
Date: Wed Feb 14 14:58:25 IST 2018
User: aro
Spectrometer: QEPB0276
Trigger mode: 0
Integration Time (sec): 3.000000E1
Scans to average: 1
Electric dark correction enabled: true
Nonlinearity correction enabled: false
Boxcar width: 0
XAxis mode: Raman Shifts
Number of Pixels in Spectrum: 1044
>>>>>Begin Spectral Data<<<<<
160.701	-141
166.742	36
172.777	571
178.805	2179
184.826	6056
190.841	12775
196.849	20542
202.85	26101
208.845	27950
214.833	27596
220.815	27064
226.789	26856
232.758	26664
238.719	26404
244.674	26024
250.623	25428
256.565	24925
262.5	24377
268.429	23948
274.351	23479
280.267	23139
286.176	22843
292.079	22574
297.975	22370
303.865	22118
309.748	21934
315.625	21839
321.495	21714
327.359	21579
333.217	21473
339.068	21478
344.912	21476
350.751	21528
356.583	21398
362.408	21421
368.227	21416
374.04	21409
379.847	21476
385.647	21589
391.44	21668
397.228	21735
403.009	21774
408.784	21891
414.553	22003
420.315	21987
426.071	21953
431.821	22000
437.565	21960
443.302	21923
449.033	21884
454.758	21835
460.477	21786
466.189	21671
471.896	21664
477.596	21623
483.29	21559
488.978	21549
494.66	21445
500.335	21297
506.005	21075
511.668	20817
517.325	20555
522.977	20391
528.622	20179
534.261	20100
539.894	20011
545.521	19855
551.141	19811
556.756	19750
562.365	19632
567.968	19589
573.565	19506
579.155	19385
584.74	19331
590.319	19254
595.892	19185
601.459	19110
607.02	19049
612.575	18849
618.124	18792
623.667	18731
629.204	18529
634.735	18492
640.261	18389
645.781	18347
651.294	18328
656.802	18250
662.304	18201
667.8	18223
673.29	18141
678.775	18160
684.254	18125
689.726	18049
695.193	17894
700.655	17894
706.11	17811
711.56	17719
717.004	17606
722.442	17565
727.874	17467
733.301	17375
738.722	17356
744.137	17339
749.547	17304
754.951	17320
760.349	17346
765.741	17342
771.128	17284
776.509	17377
781.885	17363
787.254	17288
792.618	17195
797.977	17130
803.33	17001
808.677	16882
814.019	16796
819.355	16741
824.686	16678
830.011	16604
835.33	16649
840.644	16616
845.952	16640
851.255	16653
856.552	16704
861.844	16626
867.13	16598
872.41	16568
877.686	16425
882.955	16314
888.219	16142
893.478	16003
898.731	15765
903.979	15688
909.221	15579
914.458	15455
919.69	15445
924.916	15513
930.136	15579
935.351	15572
940.561	15545
945.766	15558
950.965	15454
956.158	15348
961.347	15239
966.529	15035
971.707	14841
976.879	14631
982.046	14502
987.208	14466
992.364	14419
997.515	14582
1002.66	14724
1007.801	14850
1012.936	14962
1018.066	14978
1023.19	14895
1028.309	14938
1033.423	14900
1038.532	14833
1043.636	14687
1048.734	14537
1053.827	14337
1058.915	14197
1063.998	14109
1069.075	14048
1074.147	14086
1079.214	14094
1084.276	14198
1089.333	14313
1094.385	14305
1099.431	14362
1104.472	14418
1109.509	14298
1114.54	14140
1119.565	13971
1124.586	13814
1129.602	13636
1134.613	13561
1139.618	13521
1144.619	13460
1149.614	13477
1154.604	13493
1159.589	13491
1164.57	13564
1169.545	13535
1174.515	13530
1179.48	13490
1184.44	13377
1189.395	13322
1194.345	13225
1199.29	13104
1204.23	13109
1209.165	13154
1214.095	13231
1219.021	13308
1223.941	13426
1228.856	13444
1233.766	13505
1238.672	13524
1243.572	13529
1248.467	13421
1253.358	13261
1258.244	13045
1263.124	12876
1268	12693
1272.871	12528
1277.737	12450
1282.599	12357
1287.455	12392
1292.306	12409
1297.153	12438
1301.995	12507
1306.832	12577
1311.664	12565
1316.491	12530
1321.314	12464
1326.132	12260
1330.945	11952
1335.753	11630
1340.556	11409
1345.354	11137
1350.148	10978
1354.937	10883
1359.722	10883
1364.501	10930
1369.276	11056
1374.046	11198
1378.811	11382
1383.572	11505
1388.327	11520
1393.079	11459
1397.825	11338
1402.567	11161
1407.304	11035
1412.036	10927
1416.764	10811
1421.487	10793
1426.205	10720
1430.919	10650
1435.628	10725
1440.333	10689
1445.032	10749
1449.727	10767
1454.418	10752
1459.104	10621
1463.785	10418
1468.462	10174
1473.134	9971
1477.802	9726
1482.465	9572
1487.123	9447
1491.777	9456
1496.426	9524
1501.071	9600
1505.711	9769
1510.347	9938
1514.978	10135
1519.604	10302
1524.226	10376
1528.844	10354
1533.457	10361
1538.065	10340
1542.669	10281
1547.269	10195
1551.864	10108
1556.454	10105
1561.041	10039
1565.622	10076
1570.199	10074
1574.772	10171
1579.34	10263
1583.904	10312
1588.464	10366
1593.019	10359
1597.569	10295
1602.115	10296
1606.657	10232
1611.195	10120
1615.728	10090
1620.256	10051
1624.78	10002
1629.3	10068
1633.816	10109
1638.327	10187
1642.834	10211
1647.336	10234
1651.834	10223
1656.328	10213
1660.817	10222
1665.302	10090
1669.783	9921
1674.259	9683
1678.732	9412
1683.199	9117
1687.663	8732
1692.122	8486
1696.577	8326
1701.028	8291
1705.474	8353
1709.917	8424
1714.355	8473
1718.788	8380
1723.218	8279
1727.643	8101
1732.064	7973
1736.481	7784
1740.893	7561
1745.301	7418
1749.705	7192
1754.105	7003
1758.501	6783
1762.893	6594
1767.28	6458
1771.663	6294
1776.042	6193
1780.417	6119
1784.787	6112
1789.154	6159
1793.516	6298
1797.874	6382
1802.228	6534
1806.578	6594
1810.924	6570
1815.266	6556
1819.603	6452
1823.937	6324
1828.266	6246
1832.591	6146
1836.913	6051
1841.23	5994
1845.543	5960
1849.852	5933
1854.156	5940
1858.457	5908
1862.754	5900
1867.047	5921
1871.335	5882
1875.62	5836
1879.9	5809
1884.177	5795
1888.449	5709
1892.718	5670
1896.982	5636
1901.243	5617
1905.499	5528
1909.752	5504
1914	5541
1918.245	5536
1922.485	5552
1926.722	5628
1930.954	5673
1935.183	5770
1939.408	5843
1943.628	5872
1947.845	5902
1952.058	5872
1956.267	5833
1960.472	5775
1964.673	5675
1968.87	5623
1973.063	5500
1977.252	5449
1981.438	5410
1985.619	5365
1989.797	5273
1993.971	5238
1998.14	5243
2002.306	5196
2006.469	5181
2010.627	5184
2014.781	5119
2018.932	5104
2023.078	5070
2027.221	4982
2031.36	4921
2035.495	4869
2039.627	4764
2043.754	4717
2047.878	4654
2051.998	4665
2056.114	4624
2060.226	4630
2064.334	4605
2068.439	4631
2072.54	4653
2076.637	4684
2080.73	4724
2084.82	4738
2088.906	4722
2092.988	4791
2097.066	4728
2101.14	4732
2105.211	4693
2109.278	4656
2113.342	4624
2117.401	4626
2121.457	4607
2125.509	4589
2129.558	4573
2133.602	4523
2137.643	4517
2141.681	4485
2145.714	4459
2149.744	4445
2153.77	4415
2157.793	4347
2161.812	4321
2165.827	4250
2169.838	4185
2173.846	4115
2177.851	4037
2181.851	3952
2185.848	3939
2189.841	3883
2193.831	3838
2197.817	3804
2201.799	3815
2205.778	3764
2209.753	3765
2213.725	3746
2217.693	3760
2221.657	3733
2225.618	3732
2229.575	3711
2233.529	3661
2237.479	3662
2241.425	3619
2245.368	3555
2249.307	3517
2253.243	3460
2257.175	3395
2261.104	3334
2265.029	3331
2268.95	3314
2272.868	3264
2276.783	3220
2280.694	3179
2284.601	3146
2288.505	3146
2292.405	3100
2296.302	3089
2300.195	3066
2304.085	2975
2307.971	2972
2311.854	2925
2315.734	2876
2319.609	2855
2323.482	2776
2327.351	2760
2331.216	2741
2335.078	2742
2338.937	2702
2342.792	2709
2346.643	2686
2350.492	2670
2354.336	2723
2358.178	2705
2362.015	2697
2365.85	2706
2369.681	2680
2373.508	2710
2377.333	2676
2381.153	2706
2384.971	2680
2388.785	2663
2392.595	2618
2396.402	2618
2400.206	2574
2404.007	2545
2407.804	2539
2411.597	2535
2415.388	2543
2419.174	2511
2422.958	2477
2426.738	2492
2430.515	2439
2434.289	2420
2438.059	2420
2441.825	2399
2445.589	2346
2449.349	2355
2453.106	2303
2456.859	2275
2460.61	2249
2464.356	2224
2468.1	2219
2471.84	2201
2475.577	2169
2479.311	2154
2483.041	2124
2486.768	2125
2490.492	2114
2494.213	2129
2497.93	2117
2501.644	2093
2505.355	2095
2509.062	2094
2512.766	2044
2516.467	2066
2520.165	2031
2523.859	2022
2527.551	2031
2531.239	2010
2534.923	1975
2538.605	1980
2542.283	1989
2545.958	1980
2549.63	1979
2553.299	1967
2556.964	1975
2560.626	1955
2564.285	1956
2567.941	1946
2571.594	1932
2575.243	1894
2578.89	1916
2582.533	1893
2586.173	1881
2589.809	1871
2593.443	1852
2597.073	1819
2600.701	1817
2604.325	1787
2607.946	1796
2611.564	1774
2615.178	1765
2618.79	1746
2622.398	1744
2626.004	1717
2629.606	1696
2633.205	1690
2636.801	1660
2640.394	1639
2643.983	1609
2647.57	1593
2651.153	1558
2654.734	1545
2658.311	1519
2661.885	1486
2665.456	1478
2669.025	1448
2672.589	1418
2676.151	1424
2679.71	1417
2683.266	1405
2686.819	1357
2690.368	1337
2693.915	1312
2697.458	1291
2700.999	1242
2704.536	1230
2708.071	1201
2711.602	1169
2715.13	1150
2718.656	1136
2722.178	1110
2725.697	1091
2729.214	1066
2732.727	1079
2736.237	1071
2739.744	1039
2743.249	1070
2746.75	1074
2750.248	1075
2753.743	1098
2757.236	1144
2760.725	1128
2764.211	1126
2767.695	1127
2771.175	1143
2774.652	1125
2778.127	1120
2781.598	1117
2785.067	1105
2788.532	1114
2791.995	1096
2795.455	1097
2798.911	1102
2802.365	1113
2805.816	1113
2809.264	1103
2812.709	1098
2816.151	1074
2819.59	1106
2823.026	1104
2826.46	1116
2829.89	1122
2833.318	1109
2836.742	1111
2840.164	1125
2843.583	1134
2846.999	1142
2850.412	1148
2853.822	1183
2857.229	1181
2860.634	1212
2864.035	1214
2867.434	1241
2870.83	1249
2874.223	1276
2877.613	1293
2881	1313
2884.385	1334
2887.766	1338
2891.145	1331
2894.521	1316
2897.894	1324
2901.264	1329
2904.631	1313
2907.996	1328
2911.358	1331
2914.717	1352
2918.073	1350
2921.426	1375
2924.777	1370
2928.124	1410
2931.469	1444
2934.811	1457
2938.15	1497
2941.487	1509
2944.821	1511
2948.152	1487
2951.48	1494
2954.805	1475
2958.128	1452
2961.447	1458
2964.765	1469
2968.079	1463
2971.39	1465
2974.699	1494
2978.005	1504
2981.308	1527
2984.609	1557
2987.907	1581
2991.202	1612
2994.494	1666
2997.784	1684
3001.07	1722
3004.355	1730
3007.636	1750
3010.915	1770
3014.191	1818
3017.464	1816
3020.734	1837
3024.002	1827
3027.267	1863
3030.53	1881
3033.789	1892
3037.046	1913
3040.301	1935
3043.552	1976
3046.801	2011
3050.048	2039
3053.291	2116
3056.532	2181
3059.771	2229
3063.006	2272
3066.239	2347
3069.469	2394
3072.697	2463
3075.922	2538
3079.144	2605
3082.364	2641
3085.581	2707
3088.795	2761
3092.007	2819
3095.216	2906
3098.423	2941
3101.627	3040
3104.828	3079
3108.026	3133
3111.222	3236
3114.416	3286
3117.607	3352
3120.795	3434
3123.98	3505
3127.163	3609
3130.344	3680
3133.521	3751
3136.696	3857
3139.869	3908
3143.039	3989
3146.206	4069
3149.371	4108
3152.533	4136
3155.693	4140
3158.85	4187
3162.005	4232
3165.157	4210
3168.306	4216
3171.453	4231
3174.597	4250
3177.739	4291
3180.878	4247
3184.014	4311
3187.149	4287
3190.28	4271
3193.409	4267
3196.536	4281
3199.659	4315
3202.781	4309
3205.9	4312
3209.016	4292
3212.13	4284
3215.241	4254
3218.35	4217
3221.456	4190
3224.56	4146
3227.661	4097
3230.76	4030
3233.856	4023
3236.95	3985
3240.041	3932
3243.13	3896
3246.216	3904
3249.3	3869
3252.382	3853
3255.46	3852
3258.537	3839
3261.611	3817
3264.682	3842
3267.751	3848
3270.818	3800
3273.882	3817
3276.943	3778
3280.002	3736
3283.059	3705
3286.113	3675
3289.165	3642
3292.214	3567
3295.261	3520
3298.306	3460
3301.348	3408
3304.387	3374
3307.425	3300
3310.459	3244
3313.492	3195
3316.521	3187
3319.549	3125
3322.574	3117
3325.597	3081
3328.617	3061
3331.635	3041
3334.65	3007
3337.663	3013
3340.674	3019
3343.682	2962
3346.688	2990
3349.691	2946
3352.692	2930
3355.691	2918
3358.687	2891
3361.681	2867
3364.673	2802
3367.662	2792
3370.649	2731
3373.633	2681
3376.615	2654
3379.595	2628
3382.572	2597
3385.547	2565
3388.52	2515
3391.49	2471
3394.458	2448
3397.424	2422
3400.387	2390
3403.348	2361
3406.307	2328
3409.263	2306
3412.217	2300
3415.168	2216
3418.118	2216
3421.065	2199
3424.009	2180
3426.951	2123
3429.891	2082
3432.829	2054
3435.764	2005
3438.697	1946
3441.628	1877
3444.557	1840
3447.483	1795
3450.407	1736
3453.328	1663
3456.247	1638
3459.164	1567
3462.079	1509
3464.991	1467
3467.902	1398
3470.809	1353
3473.715	1296
3476.618	1267
3479.519	1219
3482.418	1174
3485.315	1148
3488.209	1102
3491.101	1076
3493.99	1044
3496.878	1005
3499.763	957
3502.646	926
3505.527	870
3508.405	844
3511.281	795
3514.155	763
3517.027	724
3519.897	672
3522.764	622
3525.629	579
3528.492	546
3531.352	499
3534.211	460
3537.067	414
3539.921	382
3542.773	327
3545.622	307
3548.469	278
3551.315	259
3554.157	218
3556.998	183
3559.837	159
3562.673	141
3565.507	95
3568.339	94
3571.169	76
3573.996	60
3576.822	33
3579.645	1
3582.466	-16
3585.285	-32
3588.101	-56
3590.916	-77
3593.728	-110
3596.538	-114
3599.346	-140
3602.152	-159
3604.956	-177
3607.757	-189
3610.556	-197
3613.354	-211
3616.149	-234
3618.942	-241
3621.732	-254
3624.521	-267
3627.307	-280
3630.092	-287
3632.874	-296
3635.654	-313
3638.432	-322
3641.208	-326
3643.982	-347
3646.753	-357
3649.523	-362
3652.29	-376
3655.055	-376
3657.818	-393
3660.579	-404
3663.338	-418
3666.095	-425
3668.849	-443
3671.602	-448
3674.352	-450
3677.101	-460
3679.847	-469
3682.591	-473
3685.333	-481
3688.073	-482
3690.811	-499
3693.547	-496
3696.281	-499
3699.013	-505
3701.742	-507
3704.47	-518
3707.195	-524
3709.919	-526
3712.64	-528
3715.359	-529
3718.076	-536
3720.792	-538
3723.505	-533
3726.216	-548
3728.925	-546
3731.632	-554
3734.336	-556
3737.039	-561
3739.74	-559
3742.439	-576
3745.136	-567
3747.83	-573
3750.523	-573
3753.213	-574
3755.902	-578
3758.589	-575
3761.273	-583
3763.956	-581
3766.636	-589
3769.315	-594
3771.991	-587
3774.665	-588
3777.338	-591
3780.008	-594
3782.677	-594
3785.343	-591
3788.007	-595
3790.67	-596
3793.33	-600
3795.989	-595
3798.645	-589
3801.299	-598
3803.952	-603
3806.602	-610
3809.251	-612
3811.897	-608
3814.542	-612
3817.184	-609
3819.825	-608
3822.463	-609
3825.1	-620
3827.735	-606
3830.367	-609
3832.998	-615
3835.627	-620
3838.253	-623
3840.878	-620
3843.501	-616
3846.122	-610
3848.741	-612
3851.358	-616
3853.973	-615
3856.586	-618
3859.197	-618
3861.806	-626
3864.414	-621
3867.019	-618
3869.622	-620
3872.224	-617
3874.823	-602
3877.421	-590
3880.016	-568
3882.61	-541
3885.202	-544
3887.792	-558
3890.38	-596
3892.966	-613
3895.55	-627
3898.132	-629
3900.713	-640
3903.291	-638
3905.868	-633
3908.442	-634
3911.015	-637
3913.586	-623
3916.155	-630
3918.722	-632
3921.287	-633
3923.85	-642
3926.411	-632
3928.971	-645
3931.528	-639
3934.084	-631
3936.638	-633
3939.19	-641
3941.74	-637
3944.288	-642
3946.834	-634
3949.378	-641
3951.921	-642
3954.462	-644
3957	-639
3959.537	-640
3962.072	-641
3964.606	-643
3967.137	-638
3969.667	-642
3972.194	-633
3974.72	-629
3977.244	-618
3979.766	-620
3982.286	-627
3984.805	-622
3987.321	-621
3989.836	-621
3992.349	-619
3994.86	-619
3997.369	-630
3999.877	-625
4002.382	-627
4004.886	-618
4007.388	-618
4009.888	-622
4012.386	-630
4014.883	-626
4017.377	-622
4019.87	-621
4022.361	-621
4024.85	-625
4027.338	-630
4029.823	-630
4032.307	-627
4034.789	-628
4037.269	-622
4039.747	-624
4042.224	-626
4044.699	-629
4047.172	-625
4049.643	-621
4052.112	-635
4054.58	-628
4057.046	-628
4059.51	-626
4061.972	-630
4064.432	-631
4066.891	-626
4069.348	-628
4071.803	-624
4074.256	-625
4076.708	-627
4079.158	-623
4081.606	-630
4084.052	-636
4086.497	-634
4088.939	-623
4091.38	-629
4093.819	-627
4096.257	-664
4098.693	-659
4101.127	-667
4103.559	-662
4105.989	-381
4108.418	-356
4110.845	-331
4113.27	-302
4115.694	-265
4118.115	-226
4120.535	-627
4122.954	-627
4125.37	-619
4127.785	-630
4130.198	-627
4132.609	-628
4135.019	-661
4137.427	-665
4139.833	-660
4142.237	-659
