Data from 1000000CFU1_B_ramanshift_RamanShift_12-31-02-572.txt Node
Date: Sun Jan 01 12:31:02 IST 2017
User: aro
Spectrometer: QEPB0276
Trigger mode: 0
Integration Time (sec): 5.000000E0
Scans to average: 1
Electric dark correction enabled: true
Nonlinearity correction enabled: false
Boxcar width: 0
XAxis mode: Raman Shifts
Number of Pixels in Spectrum: 1044
>>>>>Begin Spectral Data<<<<<
160.701	8
166.742	23
172.777	62
178.805	191
184.826	589
190.841	1427
196.849	2624
202.85	3804
208.845	4410
214.833	4434
220.815	4264
226.789	4144
232.758	4022
238.719	3932
244.674	3793
250.623	3648
256.565	3489
262.5	3347
268.429	3189
274.351	3064
280.267	2934
286.176	2837
292.079	2747
297.975	2653
303.865	2596
309.748	2491
315.625	2454
321.495	2372
327.359	2342
333.217	2324
339.068	2283
344.912	2277
350.751	2266
356.583	2261
362.408	2256
368.227	2246
374.04	2238
379.847	2266
385.647	2270
391.44	2274
397.228	2269
403.009	2294
408.784	2326
414.553	2299
420.315	2330
426.071	2314
431.821	2306
437.565	2318
443.302	2324
449.033	2317
454.758	2296
460.477	2280
466.189	2284
471.896	2278
477.596	2250
483.29	2267
488.978	2223
494.66	2235
500.335	2220
506.005	2188
511.668	2165
517.325	2101
522.977	2079
528.622	2068
534.261	2026
539.894	2014
545.521	1994
551.141	1978
556.756	1974
562.365	1982
567.968	1954
573.565	1943
579.155	1922
584.74	1919
590.319	1902
595.892	1895
601.459	1883
607.02	1886
612.575	1875
618.124	1831
623.667	1832
629.204	1801
634.735	1774
640.261	1785
645.781	1765
651.294	1758
656.802	1744
662.304	1745
667.8	1743
673.29	1734
678.775	1734
684.254	1721
689.726	1704
695.193	1694
700.655	1697
706.11	1690
711.56	1664
717.004	1662
722.442	1650
727.874	1631
733.301	1619
738.722	1634
744.137	1603
749.547	1615
754.951	1599
760.349	1611
765.741	1606
771.128	1594
776.509	1623
781.885	1606
787.254	1603
792.618	1593
797.977	1574
803.33	1586
808.677	1571
814.019	1547
819.355	1534
824.686	1504
830.011	1503
835.33	1513
840.644	1508
845.952	1486
851.255	1483
856.552	1487
861.844	1465
867.13	1474
872.41	1475
877.686	1460
882.955	1436
888.219	1417
893.478	1400
898.731	1388
903.979	1365
909.221	1347
914.458	1344
919.69	1326
924.916	1312
930.136	1332
935.351	1333
940.561	1326
945.766	1315
950.965	1313
956.158	1309
961.347	1306
966.529	1271
971.707	1251
976.879	1244
982.046	1240
987.208	1219
992.364	1234
997.515	1210
1002.66	1242
1007.801	1248
1012.936	1243
1018.066	1251
1023.19	1263
1028.309	1277
1033.423	1269
1038.532	1267
1043.636	1276
1048.734	1265
1053.827	1230
1058.915	1227
1063.998	1227
1069.075	1219
1074.147	1225
1079.214	1228
1084.276	1230
1089.333	1246
1094.385	1252
1099.431	1255
1104.472	1254
1109.509	1247
1114.54	1257
1119.565	1222
1124.586	1222
1129.602	1199
1134.613	1203
1139.618	1201
1144.619	1190
1149.614	1195
1154.604	1197
1159.589	1206
1164.57	1203
1169.545	1215
1174.515	1223
1179.48	1208
1184.44	1213
1189.395	1206
1194.345	1183
1199.29	1191
1204.23	1177
1209.165	1200
1214.095	1194
1219.021	1209
1223.941	1218
1228.856	1230
1233.766	1234
1238.672	1239
1243.572	1224
1248.467	1229
1253.358	1221
1258.244	1212
1263.124	1199
1268	1184
1272.871	1165
1277.737	1152
1282.599	1142
1287.455	1144
1292.306	1146
1297.153	1173
1301.995	1170
1306.832	1166
1311.664	1181
1316.491	1172
1321.314	1171
1326.132	1169
1330.945	1173
1335.753	1153
1340.556	1130
1345.354	1122
1350.148	1122
1354.937	1111
1359.722	1093
1364.501	1089
1369.276	1084
1374.046	1082
1378.811	1062
1383.572	1049
1388.327	1044
1393.079	1055
1397.825	1052
1402.567	1048
1407.304	1046
1412.036	1051
1416.764	1026
1421.487	1027
1426.205	1042
1430.919	1046
1435.628	1061
1440.333	1069
1445.032	1064
1449.727	1076
1454.418	1078
1459.104	1092
1463.785	1084
1468.462	1075
1473.134	1062
1477.802	1063
1482.465	1051
1487.123	1045
1491.777	1032
1496.426	1053
1501.071	1053
1505.711	1069
1510.347	1073
1514.978	1076
1519.604	1084
1524.226	1091
1528.844	1098
1533.457	1093
1538.065	1100
1542.669	1089
1547.269	1083
1551.864	1086
1556.454	1091
1561.041	1105
1565.622	1110
1570.199	1120
1574.772	1134
1579.34	1161
1583.904	1181
1588.464	1190
1593.019	1208
1597.569	1225
1602.115	1228
1606.657	1254
1611.195	1260
1615.728	1265
1620.256	1285
1624.78	1304
1629.3	1306
1633.816	1324
1638.327	1343
1642.834	1354
1647.336	1363
1651.834	1390
1656.328	1385
1660.817	1383
1665.302	1369
1669.783	1339
1674.259	1310
1678.732	1285
1683.199	1254
1687.663	1211
1692.122	1157
1696.577	1122
1701.028	1084
1705.474	1032
1709.917	1012
1714.355	980
1718.788	959
1723.218	952
1727.643	933
1732.064	927
1736.481	897
1740.893	883
1745.301	864
1749.705	838
1754.105	820
1758.501	817
1762.893	790
1767.28	797
1771.663	772
1776.042	765
1780.417	763
1784.787	763
1789.154	765
1793.516	763
1797.874	768
1802.228	765
1806.578	739
1810.924	735
1815.266	722
1819.603	721
1823.937	717
1828.266	705
1832.591	707
1836.913	712
1841.23	698
1845.543	703
1849.852	700
1854.156	690
1858.457	695
1862.754	711
1867.047	707
1871.335	708
1875.62	710
1879.9	713
1884.177	738
1888.449	699
1892.718	709
1896.982	708
1901.243	695
1905.499	697
1909.752	698
1914	698
1918.245	689
1922.485	693
1926.722	708
1930.954	695
1935.183	691
1939.408	716
1943.628	714
1947.845	710
1952.058	704
1956.267	697
1960.472	686
1964.673	684
1968.87	677
1973.063	684
1977.252	667
1981.438	663
1985.619	659
1989.797	668
1993.971	672
1998.14	665
2002.306	673
2006.469	676
2010.627	696
2014.781	690
2018.932	693
2023.078	684
2027.221	684
2031.36	678
2035.495	674
2039.627	667
2043.754	661
2047.878	657
2051.998	651
2056.114	664
2060.226	669
2064.334	659
2068.439	663
2072.54	667
2076.637	663
2080.73	676
2084.82	668
2088.906	678
2092.988	676
2097.066	672
2101.14	670
2105.211	657
2109.278	647
2113.342	647
2117.401	657
2121.457	649
2125.509	651
2129.558	637
2133.602	650
2137.643	633
2141.681	629
2145.714	628
2149.744	652
2153.77	632
2157.793	630
2161.812	623
2165.827	612
2169.838	615
2173.846	607
2177.851	598
2181.851	594
2185.848	580
2189.841	578
2193.831	565
2197.817	574
2201.799	572
2205.778	559
2209.753	564
2213.725	566
2217.693	553
2221.657	557
2225.618	561
2229.575	554
2233.529	556
2237.479	545
2241.425	544
2245.368	543
2249.307	524
2253.243	526
2257.175	520
2261.104	514
2265.029	507
2268.95	501
2272.868	506
2276.783	491
2280.694	487
2284.601	482
2288.505	474
2292.405	478
2296.302	474
2300.195	458
2304.085	455
2307.971	448
2311.854	448
2315.734	440
2319.609	430
2323.482	424
2327.351	427
2331.216	423
2335.078	414
2338.937	415
2342.792	412
2346.643	404
2350.492	408
2354.336	401
2358.178	407
2362.015	407
2365.85	411
2369.681	404
2373.508	406
2377.333	399
2381.153	401
2384.971	415
2388.785	400
2392.595	408
2396.402	391
2400.206	403
2404.007	392
2407.804	400
2411.597	397
2415.388	392
2419.174	402
2422.958	386
2426.738	387
2430.515	387
2434.289	381
2438.059	389
2441.825	388
2445.589	390
2449.349	386
2453.106	390
2456.859	373
2460.61	369
2464.356	368
2468.1	362
2471.84	365
2475.577	368
2479.311	356
2483.041	366
2486.768	357
2490.492	358
2494.213	353
2497.93	363
2501.644	359
2505.355	360
2509.062	363
2512.766	353
2516.467	354
2520.165	354
2523.859	356
2527.551	351
2531.239	344
2534.923	342
2538.605	335
2542.283	338
2545.958	345
2549.63	336
2553.299	333
2556.964	336
2560.626	324
2564.285	326
2567.941	321
2571.594	322
2575.243	332
2578.89	317
2582.533	321
2586.173	322
2589.809	306
2593.443	313
2597.073	309
2600.701	309
2604.325	305
2607.946	305
2611.564	307
2615.178	309
2618.79	296
2622.398	298
2626.004	301
2629.606	308
2633.205	299
2636.801	295
2640.394	291
2643.983	301
2647.57	289
2651.153	286
2654.734	278
2658.311	287
2661.885	274
2665.456	276
2669.025	279
2672.589	275
2676.151	271
2679.71	266
2683.266	268
2686.819	267
2690.368	256
2693.915	265
2697.458	263
2700.999	250
2704.536	245
2708.071	255
2711.602	245
2715.13	248
2718.656	246
2722.178	248
2725.697	247
2729.214	247
2732.727	250
2736.237	249
2739.744	253
2743.249	245
2746.75	241
2750.248	250
2753.743	254
2757.236	248
2760.725	242
2764.211	246
2767.695	243
2771.175	240
2774.652	233
2778.127	229
2781.598	232
2785.067	235
2788.532	239
2791.995	234
2795.455	236
2798.911	239
2802.365	239
2805.816	241
2809.264	240
2812.709	249
2816.151	241
2819.59	246
2823.026	247
2826.46	242
2829.89	246
2833.318	241
2836.742	253
2840.164	242
2843.583	244
2846.999	256
2850.412	256
2853.822	260
2857.229	258
2860.634	257
2864.035	259
2867.434	263
2870.83	267
2874.223	267
2877.613	275
2881	266
2884.385	267
2887.766	269
2891.145	275
2894.521	273
2897.894	266
2901.264	263
2904.631	273
2907.996	269
2911.358	273
2914.717	275
2918.073	283
2921.426	281
2924.777	289
2928.124	290
2931.469	293
2934.811	296
2938.15	307
2941.487	316
2944.821	311
2948.152	313
2951.48	327
2954.805	322
2958.128	328
2961.447	329
2964.765	338
2968.079	340
2971.39	342
2974.699	355
2978.005	361
2981.308	357
2984.609	366
2987.907	382
2991.202	384
2994.494	389
2997.784	411
3001.07	420
3004.355	422
3007.636	429
3010.915	438
3014.191	451
3017.464	452
3020.734	463
3024.002	466
3027.267	471
3030.53	482
3033.789	497
3037.046	499
3040.301	514
3043.552	515
3046.801	534
3050.048	546
3053.291	558
3056.532	575
3059.771	582
3063.006	600
3066.239	620
3069.469	638
3072.697	661
3075.922	676
3079.144	686
3082.364	707
3085.581	716
3088.795	725
3092.007	747
3095.216	760
3098.423	784
3101.627	798
3104.828	812
3108.026	838
3111.222	847
3114.416	847
3117.607	879
3120.795	900
3123.98	911
3127.163	941
3130.344	954
3133.521	978
3136.696	1000
3139.869	1021
3143.039	1030
3146.206	1064
3149.371	1058
3152.533	1077
3155.693	1074
3158.85	1086
3162.005	1103
3165.157	1098
3168.306	1122
3171.453	1102
3174.597	1111
3177.739	1119
3180.878	1118
3184.014	1141
3187.149	1136
3190.28	1124
3193.409	1136
3196.536	1156
3199.659	1147
3202.781	1151
3205.9	1157
3209.016	1160
3212.13	1146
3215.241	1148
3218.35	1145
3221.456	1134
3224.56	1122
3227.661	1104
3230.76	1106
3233.856	1091
3236.95	1091
3240.041	1069
3243.13	1065
3246.216	1059
3249.3	1057
3252.382	1050
3255.46	1041
3258.537	1023
3261.611	1027
3264.682	1008
3267.751	1028
3270.818	1023
3273.882	1023
3276.943	1021
3280.002	1017
3283.059	1004
3286.113	996
3289.165	985
3292.214	963
3295.261	944
3298.306	938
3301.348	928
3304.387	910
3307.425	897
3310.459	886
3313.492	877
3316.521	863
3319.549	865
3322.574	840
3325.597	837
3328.617	836
3331.635	826
3334.65	829
3337.663	821
3340.674	810
3343.682	812
3346.688	803
3349.691	818
3352.692	817
3355.691	810
3358.687	805
3361.681	792
3364.673	779
3367.662	769
3370.649	763
3373.633	753
3376.615	751
3379.595	740
3382.572	736
3385.547	705
3388.52	709
3391.49	695
3394.458	689
3397.424	684
3400.387	670
3403.348	670
3406.307	663
3409.263	650
3412.217	651
3415.168	633
3418.118	632
3421.065	626
3424.009	619
3426.951	611
3429.891	598
3432.829	582
3435.764	585
3438.697	575
3441.628	558
3444.557	552
3447.483	547
3450.407	523
3453.328	508
3456.247	487
3459.164	485
3462.079	465
3464.991	451
3467.902	438
3470.809	434
3473.715	419
3476.618	401
3479.519	392
3482.418	388
3485.315	380
3488.209	365
3491.101	360
3493.99	347
3496.878	336
3499.763	334
3502.646	322
3505.527	311
3508.405	301
3511.281	294
3514.155	286
3517.027	269
3519.897	260
3522.764	251
3525.629	240
3528.492	233
3531.352	210
3534.211	206
3537.067	194
3539.921	185
3542.773	178
3545.622	166
3548.469	164
3551.315	145
3554.157	141
3556.998	138
3559.837	129
3562.673	125
3565.507	124
3568.339	118
3571.169	111
3573.996	103
3576.822	101
3579.645	94
3582.466	90
3585.285	84
3588.101	83
3590.916	74
3593.728	65
3596.538	60
3599.346	60
3602.152	51
3604.956	52
3607.757	46
3610.556	39
3613.354	41
3616.149	32
3618.942	30
3621.732	33
3624.521	23
3627.307	22
3630.092	15
3632.874	19
3635.654	13
3638.432	11
3641.208	10
3643.982	8
3646.753	8
3649.523	2
3652.29	3
3655.055	-2
3657.818	-1
3660.579	-3
3663.338	-3
3666.095	-6
3668.849	-12
3671.602	-14
3674.352	-15
3677.101	-17
3679.847	-22
3682.591	-21
3685.333	-25
3688.073	-28
3690.811	-25
3693.547	-27
3696.281	-33
3699.013	-33
3701.742	-37
3704.47	-36
3707.195	-38
3709.919	-41
3712.64	-41
3715.359	-42
3718.076	-43
3720.792	-43
3723.505	-46
3726.216	-42
3728.925	-48
3731.632	-43
3734.336	-45
3737.039	-47
3739.74	-48
3742.439	-46
3745.136	-47
3747.83	-45
3750.523	-51
3753.213	-44
3755.902	-49
3758.589	-52
3761.273	-52
3763.956	-48
3766.636	-52
3769.315	-53
3771.991	-56
3774.665	-53
3777.338	-53
3780.008	-54
3782.677	-59
3785.343	-55
3788.007	-52
3790.67	-56
3793.33	-56
3795.989	-52
3798.645	-57
3801.299	-54
3803.952	-58
3806.602	-57
3809.251	-60
3811.897	-54
3814.542	-59
3817.184	-59
3819.825	-56
3822.463	-54
3825.1	-56
3827.735	-54
3830.367	-58
3832.998	-59
3835.627	-58
3838.253	-58
3840.878	-61
3843.501	-59
3846.122	-63
3848.741	-63
3851.358	-66
3853.973	-62
3856.586	-60
3859.197	-65
3861.806	-66
3864.414	-62
3867.019	-66
3869.622	-65
3872.224	-67
3874.823	-60
3877.421	-66
3880.016	-58
3882.61	-61
3885.202	-64
3887.792	-57
3890.38	-60
3892.966	-61
3895.55	-61
3898.132	-63
3900.713	-63
3903.291	-66
3905.868	-61
3908.442	-61
3911.015	-65
3913.586	-63
3916.155	-64
3918.722	-64
3921.287	-60
3923.85	-64
3926.411	-64
3928.971	-65
3931.528	-64
3934.084	-68
3936.638	-65
3939.19	-69
3941.74	-64
3944.288	-64
3946.834	-65
3949.378	-70
3951.921	-67
3954.462	-65
3957	-63
3959.537	-65
3962.072	-64
3964.606	-64
3967.137	-63
3969.667	-63
3972.194	-65
3974.72	-61
3977.244	-62
3979.766	-60
3982.286	-62
3984.805	-66
3987.321	-61
3989.836	-66
3992.349	-67
3994.86	-67
3997.369	-68
3999.877	-65
4002.382	-63
4004.886	-66
4007.388	-66
4009.888	-65
4012.386	-62
4014.883	-69
4017.377	-67
4019.87	-65
4022.361	-69
4024.85	-66
4027.338	-66
4029.823	-67
4032.307	-67
4034.789	-63
4037.269	-66
4039.747	-66
4042.224	-63
4044.699	-64
4047.172	-63
4049.643	-62
4052.112	-64
4054.58	-63
4057.046	-63
4059.51	-63
4061.972	-61
4064.432	-64
4066.891	-62
4069.348	-64
4071.803	-65
4074.256	-64
4076.708	-67
4079.158	-67
4081.606	-67
4084.052	-65
4086.497	-65
4088.939	-66
4091.38	-68
4093.819	-65
4096.257	-73
4098.693	-73
4101.127	-73
4103.559	-70
4105.989	-21
4108.418	-21
4110.845	-18
4113.27	-22
4115.694	-10
4118.115	-2
4120.535	-67
4122.954	-69
4125.37	-70
4127.785	-67
4130.198	-68
4132.609	-65
4135.019	-71
4137.427	-73
4139.833	-69
4142.237	-71
