Data from 10000CFU3_A_ramanshift_RamanShift_11-49-02-705.txt Node
Date: Sun Jan 01 11:49:02 IST 2017
User: aro
Spectrometer: QEPB0276
Trigger mode: 0
Integration Time (sec): 5.000000E0
Scans to average: 1
Electric dark correction enabled: true
Nonlinearity correction enabled: false
Boxcar width: 0
XAxis mode: Raman Shifts
Number of Pixels in Spectrum: 1044
>>>>>Begin Spectral Data<<<<<
160.701	3
166.742	18
172.777	59
178.805	197
184.826	598
190.841	1428
196.849	2664
202.85	3776
208.845	4358
214.833	4358
220.815	4219
226.789	4074
232.758	3967
238.719	3876
244.674	3744
250.623	3611
256.565	3456
262.5	3305
268.429	3162
274.351	3034
280.267	2943
286.176	2825
292.079	2741
297.975	2659
303.865	2580
309.748	2508
315.625	2442
321.495	2401
327.359	2357
333.217	2317
339.068	2308
344.912	2279
350.751	2277
356.583	2288
362.408	2261
368.227	2256
374.04	2268
379.847	2261
385.647	2288
391.44	2283
397.228	2300
403.009	2297
408.784	2314
414.553	2307
420.315	2312
426.071	2322
431.821	2316
437.565	2324
443.302	2327
449.033	2314
454.758	2289
460.477	2301
466.189	2294
471.896	2257
477.596	2274
483.29	2245
488.978	2262
494.66	2223
500.335	2213
506.005	2180
511.668	2164
517.325	2115
522.977	2085
528.622	2053
534.261	2045
539.894	2008
545.521	2004
551.141	2000
556.756	1989
562.365	1985
567.968	1955
573.565	1938
579.155	1918
584.74	1939
590.319	1915
595.892	1909
601.459	1904
607.02	1867
612.575	1859
618.124	1844
623.667	1844
629.204	1818
634.735	1808
640.261	1795
645.781	1776
651.294	1746
656.802	1768
662.304	1752
667.8	1750
673.29	1755
678.775	1721
684.254	1725
689.726	1721
695.193	1704
700.655	1693
706.11	1683
711.56	1691
717.004	1669
722.442	1642
727.874	1654
733.301	1645
738.722	1620
744.137	1630
749.547	1613
754.951	1616
760.349	1613
765.741	1625
771.128	1615
776.509	1612
781.885	1615
787.254	1618
792.618	1619
797.977	1593
803.33	1585
808.677	1578
814.019	1563
819.355	1545
824.686	1530
830.011	1524
835.33	1510
840.644	1513
845.952	1505
851.255	1498
856.552	1489
861.844	1476
867.13	1472
872.41	1469
877.686	1480
882.955	1453
888.219	1447
893.478	1421
898.731	1391
903.979	1371
909.221	1382
914.458	1346
919.69	1346
924.916	1333
930.136	1323
935.351	1336
940.561	1329
945.766	1335
950.965	1330
956.158	1314
961.347	1322
966.529	1290
971.707	1283
976.879	1268
982.046	1250
987.208	1251
992.364	1236
997.515	1249
1002.66	1241
1007.801	1260
1012.936	1274
1018.066	1278
1023.19	1292
1028.309	1280
1033.423	1299
1038.532	1289
1043.636	1286
1048.734	1275
1053.827	1273
1058.915	1251
1063.998	1247
1069.075	1230
1074.147	1227
1079.214	1242
1084.276	1238
1089.333	1265
1094.385	1268
1099.431	1267
1104.472	1290
1109.509	1274
1114.54	1266
1119.565	1253
1124.586	1245
1129.602	1220
1134.613	1220
1139.618	1196
1144.619	1207
1149.614	1201
1154.604	1219
1159.589	1218
1164.57	1215
1169.545	1224
1174.515	1235
1179.48	1232
1184.44	1211
1189.395	1216
1194.345	1202
1199.29	1211
1204.23	1196
1209.165	1205
1214.095	1226
1219.021	1220
1223.941	1223
1228.856	1248
1233.766	1242
1238.672	1248
1243.572	1248
1248.467	1250
1253.358	1219
1258.244	1231
1263.124	1218
1268	1198
1272.871	1171
1277.737	1170
1282.599	1167
1287.455	1169
1292.306	1158
1297.153	1176
1301.995	1179
1306.832	1194
1311.664	1199
1316.491	1191
1321.314	1199
1326.132	1184
1330.945	1171
1335.753	1171
1340.556	1153
1345.354	1146
1350.148	1141
1354.937	1115
1359.722	1120
1364.501	1118
1369.276	1097
1374.046	1097
1378.811	1086
1383.572	1079
1388.327	1082
1393.079	1082
1397.825	1072
1402.567	1066
1407.304	1059
1412.036	1045
1416.764	1059
1421.487	1057
1426.205	1056
1430.919	1067
1435.628	1072
1440.333	1081
1445.032	1080
1449.727	1098
1454.418	1105
1459.104	1126
1463.785	1112
1468.462	1095
1473.134	1072
1477.802	1061
1482.465	1064
1487.123	1069
1491.777	1058
1496.426	1058
1501.071	1061
1505.711	1072
1510.347	1086
1514.978	1106
1519.604	1110
1524.226	1098
1528.844	1108
1533.457	1108
1538.065	1126
1542.669	1123
1547.269	1116
1551.864	1118
1556.454	1121
1561.041	1125
1565.622	1130
1570.199	1151
1574.772	1162
1579.34	1184
1583.904	1213
1588.464	1211
1593.019	1222
1597.569	1241
1602.115	1263
1606.657	1281
1611.195	1268
1615.728	1289
1620.256	1288
1624.78	1323
1629.3	1327
1633.816	1346
1638.327	1377
1642.834	1392
1647.336	1416
1651.834	1388
1656.328	1403
1660.817	1405
1665.302	1387
1669.783	1358
1674.259	1332
1678.732	1288
1683.199	1259
1687.663	1218
1692.122	1185
1696.577	1161
1701.028	1093
1705.474	1062
1709.917	1020
1714.355	1010
1718.788	981
1723.218	973
1727.643	964
1732.064	943
1736.481	930
1740.893	915
1745.301	886
1749.705	855
1754.105	845
1758.501	817
1762.893	809
1767.28	785
1771.663	788
1776.042	780
1780.417	779
1784.787	779
1789.154	786
1793.516	787
1797.874	784
1802.228	780
1806.578	784
1810.924	771
1815.266	754
1819.603	737
1823.937	727
1828.266	729
1832.591	726
1836.913	712
1841.23	708
1845.543	721
1849.852	709
1854.156	705
1858.457	718
1862.754	728
1867.047	724
1871.335	731
1875.62	719
1879.9	749
1884.177	742
1888.449	728
1892.718	724
1896.982	719
1901.243	716
1905.499	730
1909.752	727
1914	720
1918.245	717
1922.485	712
1926.722	713
1930.954	710
1935.183	718
1939.408	730
1943.628	729
1947.845	735
1952.058	716
1956.267	727
1960.472	719
1964.673	705
1968.87	694
1973.063	698
1977.252	691
1981.438	687
1985.619	687
1989.797	681
1993.971	694
1998.14	693
2002.306	688
2006.469	695
2010.627	690
2014.781	706
2018.932	704
2023.078	698
2027.221	704
2031.36	688
2035.495	699
2039.627	686
2043.754	683
2047.878	670
2051.998	684
2056.114	678
2060.226	680
2064.334	684
2068.439	682
2072.54	677
2076.637	678
2080.73	682
2084.82	689
2088.906	688
2092.988	692
2097.066	686
2101.14	685
2105.211	681
2109.278	682
2113.342	670
2117.401	671
2121.457	666
2125.509	660
2129.558	664
2133.602	658
2137.643	659
2141.681	658
2145.714	657
2149.744	656
2153.77	644
2157.793	646
2161.812	631
2165.827	632
2169.838	631
2173.846	618
2177.851	609
2181.851	605
2185.848	587
2189.841	594
2193.831	589
2197.817	585
2201.799	582
2205.778	571
2209.753	571
2213.725	565
2217.693	575
2221.657	578
2225.618	561
2229.575	553
2233.529	565
2237.479	573
2241.425	562
2245.368	555
2249.307	539
2253.243	546
2257.175	525
2261.104	525
2265.029	517
2268.95	511
2272.868	506
2276.783	501
2280.694	496
2284.601	491
2288.505	482
2292.405	482
2296.302	478
2300.195	478
2304.085	472
2307.971	456
2311.854	462
2315.734	451
2319.609	442
2323.482	439
2327.351	435
2331.216	431
2335.078	431
2338.937	426
2342.792	418
2346.643	416
2350.492	418
2354.336	415
2358.178	414
2362.015	412
2365.85	413
2369.681	419
2373.508	424
2377.333	416
2381.153	423
2384.971	425
2388.785	406
2392.595	413
2396.402	404
2400.206	409
2404.007	403
2407.804	410
2411.597	403
2415.388	407
2419.174	406
2422.958	397
2426.738	400
2430.515	393
2434.289	388
2438.059	393
2441.825	394
2445.589	388
2449.349	389
2453.106	391
2456.859	382
2460.61	380
2464.356	378
2468.1	376
2471.84	375
2475.577	382
2479.311	374
2483.041	362
2486.768	372
2490.492	363
2494.213	368
2497.93	372
2501.644	375
2505.355	370
2509.062	375
2512.766	369
2516.467	363
2520.165	367
2523.859	359
2527.551	358
2531.239	351
2534.923	353
2538.605	351
2542.283	353
2545.958	344
2549.63	350
2553.299	350
2556.964	340
2560.626	331
2564.285	340
2567.941	329
2571.594	327
2575.243	331
2578.89	322
2582.533	326
2586.173	329
2589.809	317
2593.443	324
2597.073	321
2600.701	315
2604.325	305
2607.946	313
2611.564	320
2615.178	315
2618.79	311
2622.398	317
2626.004	313
2629.606	312
2633.205	314
2636.801	317
2640.394	305
2643.983	303
2647.57	302
2651.153	307
2654.734	296
2658.311	290
2661.885	286
2665.456	288
2669.025	280
2672.589	295
2676.151	284
2679.71	275
2683.266	285
2686.819	267
2690.368	267
2693.915	270
2697.458	258
2700.999	263
2704.536	256
2708.071	256
2711.602	255
2715.13	253
2718.656	261
2722.178	250
2725.697	255
2729.214	253
2732.727	256
2736.237	255
2739.744	250
2743.249	257
2746.75	259
2750.248	257
2753.743	257
2757.236	251
2760.725	244
2764.211	256
2767.695	251
2771.175	244
2774.652	243
2778.127	241
2781.598	239
2785.067	242
2788.532	244
2791.995	239
2795.455	239
2798.911	240
2802.365	242
2805.816	245
2809.264	242
2812.709	247
2816.151	248
2819.59	242
2823.026	244
2826.46	255
2829.89	251
2833.318	253
2836.742	249
2840.164	252
2843.583	253
2846.999	260
2850.412	258
2853.822	262
2857.229	251
2860.634	260
2864.035	272
2867.434	272
2870.83	269
2874.223	274
2877.613	272
2881	273
2884.385	275
2887.766	285
2891.145	269
2894.521	274
2897.894	280
2901.264	283
2904.631	274
2907.996	269
2911.358	279
2914.717	281
2918.073	290
2921.426	285
2924.777	289
2928.124	299
2931.469	297
2934.811	312
2938.15	312
2941.487	318
2944.821	321
2948.152	318
2951.48	332
2954.805	320
2958.128	325
2961.447	329
2964.765	334
2968.079	331
2971.39	354
2974.699	354
2978.005	354
2981.308	363
2984.609	364
2987.907	386
2991.202	381
2994.494	402
2997.784	403
3001.07	414
3004.355	431
3007.636	443
3010.915	443
3014.191	452
3017.464	461
3020.734	457
3024.002	470
3027.267	471
3030.53	463
3033.789	484
3037.046	490
3040.301	509
3043.552	504
3046.801	530
3050.048	540
3053.291	544
3056.532	559
3059.771	580
3063.006	595
3066.239	603
3069.469	632
3072.697	656
3075.922	658
3079.144	684
3082.364	698
3085.581	708
3088.795	713
3092.007	739
3095.216	749
3098.423	764
3101.627	787
3104.828	800
3108.026	833
3111.222	817
3114.416	851
3117.607	864
3120.795	882
3123.98	901
3127.163	916
3130.344	945
3133.521	966
3136.696	986
3139.869	1003
3143.039	1020
3146.206	1025
3149.371	1054
3152.533	1059
3155.693	1060
3158.85	1066
3162.005	1080
3165.157	1086
3168.306	1089
3171.453	1108
3174.597	1107
3177.739	1108
3180.878	1108
3184.014	1115
3187.149	1119
3190.28	1128
3193.409	1136
3196.536	1126
3199.659	1133
3202.781	1137
3205.9	1133
3209.016	1140
3212.13	1126
3215.241	1132
3218.35	1125
3221.456	1132
3224.56	1102
3227.661	1108
3230.76	1088
3233.856	1075
3236.95	1083
3240.041	1061
3243.13	1060
3246.216	1041
3249.3	1025
3252.382	1048
3255.46	1033
3258.537	1030
3261.611	1017
3264.682	1010
3267.751	1000
3270.818	1020
3273.882	1000
3276.943	1011
3280.002	1006
3283.059	996
3286.113	976
3289.165	969
3292.214	951
3295.261	940
3298.306	927
3301.348	914
3304.387	906
3307.425	892
3310.459	871
3313.492	862
3316.521	859
3319.549	839
3322.574	833
3325.597	833
3328.617	827
3331.635	825
3334.65	816
3337.663	819
3340.674	814
3343.682	815
3346.688	802
3349.691	806
3352.692	801
3355.691	793
3358.687	787
3361.681	787
3364.673	782
3367.662	773
3370.649	752
3373.633	750
3376.615	735
3379.595	736
3382.572	717
3385.547	713
3388.52	701
3391.49	679
3394.458	684
3397.424	688
3400.387	676
3403.348	659
3406.307	661
3409.263	647
3412.217	644
3415.168	623
3418.118	620
3421.065	625
3424.009	614
3426.951	604
3429.891	603
3432.829	583
3435.764	574
3438.697	567
3441.628	543
3444.557	545
3447.483	526
3450.407	511
3453.328	504
3456.247	498
3459.164	477
3462.079	464
3464.991	460
3467.902	440
3470.809	425
3473.715	416
3476.618	414
3479.519	403
3482.418	396
3485.315	379
3488.209	358
3491.101	357
3493.99	350
3496.878	341
3499.763	328
3502.646	325
3505.527	309
3508.405	299
3511.281	288
3514.155	273
3517.027	276
3519.897	256
3522.764	249
3525.629	242
3528.492	229
3531.352	212
3534.211	196
3537.067	193
3539.921	180
3542.773	187
3545.622	166
3548.469	155
3551.315	143
3554.157	147
3556.998	142
3559.837	137
3562.673	119
3565.507	128
3568.339	118
3571.169	112
3573.996	105
3576.822	103
3579.645	104
3582.466	88
3585.285	83
3588.101	77
3590.916	70
3593.728	68
3596.538	61
3599.346	58
3602.152	59
3604.956	46
3607.757	44
3610.556	44
3613.354	39
3616.149	35
3618.942	24
3621.732	31
3624.521	20
3627.307	21
3630.092	16
3632.874	15
3635.654	11
3638.432	10
3641.208	10
3643.982	5
3646.753	3
3649.523	2
3652.29	1
3655.055	-4
3657.818	-4
3660.579	-11
3663.338	-15
3666.095	-15
3668.849	-16
3671.602	-17
3674.352	-20
3677.101	-20
3679.847	-23
3682.591	-26
3685.333	-22
3688.073	-27
3690.811	-28
3693.547	-29
3696.281	-35
3699.013	-30
3701.742	-34
3704.47	-37
3707.195	-36
3709.919	-39
3712.64	-39
3715.359	-39
3718.076	-37
3720.792	-42
3723.505	-41
3726.216	-40
3728.925	-42
3731.632	-45
3734.336	-42
3737.039	-46
3739.74	-47
3742.439	-49
3745.136	-47
3747.83	-47
3750.523	-48
3753.213	-46
3755.902	-48
3758.589	-47
3761.273	-54
3763.956	-49
3766.636	-51
3769.315	-56
3771.991	-56
3774.665	-55
3777.338	-54
3780.008	-54
3782.677	-60
3785.343	-56
3788.007	-53
3790.67	-55
3793.33	-60
3795.989	-56
3798.645	-59
3801.299	-60
3803.952	-59
3806.602	-58
3809.251	-61
3811.897	-58
3814.542	-58
3817.184	-57
3819.825	-54
3822.463	-55
3825.1	-57
3827.735	-56
3830.367	-58
3832.998	-59
3835.627	-58
3838.253	-59
3840.878	-64
3843.501	-56
3846.122	-56
3848.741	-59
3851.358	-60
3853.973	-59
3856.586	-60
3859.197	-62
3861.806	-63
3864.414	-61
3867.019	-63
3869.622	-64
3872.224	-65
3874.823	-64
3877.421	-64
3880.016	-60
3882.61	-59
3885.202	-59
3887.792	-54
3890.38	-61
3892.966	-61
3895.55	-64
3898.132	-66
3900.713	-69
3903.291	-68
3905.868	-65
3908.442	-64
3911.015	-63
3913.586	-65
3916.155	-66
3918.722	-63
3921.287	-64
3923.85	-68
3926.411	-66
3928.971	-71
3931.528	-66
3934.084	-68
3936.638	-69
3939.19	-65
3941.74	-70
3944.288	-63
3946.834	-66
3949.378	-70
3951.921	-67
3954.462	-69
3957	-64
3959.537	-65
3962.072	-65
3964.606	-63
3967.137	-65
3969.667	-65
3972.194	-66
3974.72	-63
3977.244	-62
3979.766	-60
3982.286	-59
3984.805	-61
3987.321	-63
3989.836	-63
3992.349	-66
3994.86	-65
3997.369	-64
3999.877	-66
4002.382	-63
4004.886	-64
4007.388	-66
4009.888	-65
4012.386	-64
4014.883	-69
4017.377	-70
4019.87	-68
4022.361	-69
4024.85	-68
4027.338	-67
4029.823	-66
4032.307	-70
4034.789	-67
4037.269	-65
4039.747	-68
4042.224	-65
4044.699	-65
4047.172	-64
4049.643	-64
4052.112	-62
4054.58	-64
4057.046	-67
4059.51	-63
4061.972	-65
4064.432	-67
4066.891	-65
4069.348	-65
4071.803	-64
4074.256	-66
4076.708	-67
4079.158	-65
4081.606	-66
4084.052	-66
4086.497	-67
4088.939	-67
4091.38	-66
4093.819	-67
4096.257	-71
4098.693	-72
4101.127	-73
4103.559	-70
4105.989	-21
4108.418	-21
4110.845	-23
4113.27	-17
4115.694	-17
4118.115	-8
4120.535	-66
4122.954	-68
4125.37	-70
4127.785	-67
4130.198	-66
4132.609	-67
4135.019	-70
4137.427	-71
4139.833	-68
4142.237	-68
