##TITLE=FAAI0851
##FORMAT=SPECTACLE-ASCII V-1.2
##DATA TYPE=ULTRAVIOLET SPECTRUM
##SECOND TYPE=ULTRAVIOLET SPECTRUM
##DATE=11/28/17
##TIME=13:51:23
##SPECTROMETER/DATA SYSTEM=SPECTACLE
##XUNITS=NM EM
##YUNITS=ENERGY
##YFACTOR=1
##FIRSTX=220
##LASTX=410
##NPOINTS=96
##3DDATA=Equidistant
##ZUNITS=NM EX
##FIRSTZ=210
##LASTZ=400
##ZPOINTS=39
##XYDATA=(Y..Y)
##ZVALUE=210
5.524755
6.183982
7.459521
5.769730
6.110668
6.210804
5.987883
5.469918
5.472898
4.553795
4.398823
3.715754
3.518462
3.484488
3.932714
3.638864
3.448725
3.511906
3.546476
4.219413
3.998876
5.216599
4.643798
4.719496
5.791783
5.995631
6.460547
7.572770
8.188486
9.429455
10.216832
10.583997
11.703968
11.928678
12.383461
14.488697
14.254451
13.994575
16.600490
14.256835
15.748739
16.106963
17.302632
16.955733
16.428828
16.116500
16.853809
17.113686
16.486645
17.996430
17.087460
17.358661
17.390847
16.587973
16.899705
19.802451
19.139647
17.921925
18.567443
20.612478
20.729899
18.801689
18.935800
19.597411
19.305944
20.813942
21.916628
24.674535
24.431944
26.284456
26.915669
32.206774
32.636523
35.313964
35.132766
37.607551
36.515594
37.452579
35.676956
33.488870
33.490658
28.242469
26.940703
23.736954
20.989776
17.698407
16.294718
15.365481
14.467835
12.648702
13.673902
14.105439
13.425946
15.231967
15.389919
15.700459
##ZVALUE=215
16.808510
16.703606
15.733838
14.682412
12.115836
10.403991
10.034442
9.657741
8.765459
7.752776
8.222461
6.855726
6.372929
6.067753
4.039407
4.340410
4.462600
4.387498
4.597902
3.802776
4.007816
5.404949
4.918575
5.539656
5.590916
6.597638
7.324815
9.698868
9.806752
11.100769
12.681484
14.377832
16.336441
19.416809
20.100474
21.034479
20.887852
24.220943
22.975802
24.245977
24.911761
23.443699
24.157763
25.112629
22.361875
23.809671
23.345947
24.503469
23.732781
20.396709
22.377968
22.085905
22.139549
21.100640
20.713806
20.644665
22.341609
21.234751
20.496845
21.475554
22.075772
20.132661
21.427870
21.437407
21.524429
21.377802
22.372603
22.663474
24.142861
24.878979
27.132630
29.063821
31.422973
32.062531
34.522414
34.249425
34.732819
34.732819
31.349659
30.063987
28.844476
26.824474
24.693608
23.710728
20.353794
18.098950
16.717911
14.854670
14.403462
14.983416
15.139580
13.723969
13.365746
13.367534
13.519526
13.977885
##ZVALUE=220
38.747787
41.438937
44.990778
45.288801
40.714741
30.312538
26.433468
21.793842
17.222762
16.763806
17.843843
17.499924
16.903877
13.906956
13.038516
9.426475
7.520914
5.959868
5.078912
5.497932
5.066991
4.730821
4.963875
6.388426
7.063746
7.196665
9.424686
10.352731
11.765957
15.182495
19.527674
23.081899
26.239753
31.730533
35.630465
39.882660
42.011738
43.238997
47.990680
45.114756
47.165751
48.343539
46.774745
47.606826
43.518543
44.027567
44.803619
39.953589
39.946437
36.494732
39.858818
34.515858
35.375953
36.199689
33.995509
31.045675
33.092499
28.533936
31.349659
29.865503
30.590892
28.648973
29.541850
28.153658
27.704835
28.680563
29.879808
31.253695
29.478669
35.478473
35.616755
37.334561
37.830472
38.748980
41.257739
41.588545
42.280555
39.473772
39.898753
37.302971
36.026835
32.859445
30.322671
28.068423
26.492476
22.888780
22.394657
20.088553
19.497871
19.145608
18.941760
17.688870
15.645623
16.485453
15.537739
16.017556
##ZVALUE=225
56.238770
62.506795
76.205730
96.185803
100.691915
101.964474
89.199543
70.196986
53.287745
42.280555
32.240748
28.312802
29.088855
31.151772
30.301809
28.633475
23.229718
18.272996
14.855862
10.100603
8.694530
6.423593
5.220771
7.285476
6.763935
7.404685
9.642839
12.378693
16.058683
19.152761
28.868914
36.889911
42.693615
53.166747
60.076714
66.236854
74.880719
78.698993
83.970428
89.413524
86.137652
87.119937
86.389780
88.200569
87.734461
83.682537
83.738565
79.676509
73.804855
69.223642
69.819689
66.228509
64.569712
62.819719
57.673454
55.655837
54.889917
52.936673
52.498579
52.066445
47.138929
49.497485
47.981739
46.676993
46.639442
47.791600
45.892000
45.272708
44.608712
46.199560
46.409965
45.236945
48.123598
48.684478
48.737526
46.322942
46.567917
44.927001
44.991970
42.747855
38.688779
37.998557
37.056804
33.019781
30.952692
29.936433
26.593804
28.474927
25.761724
25.346875
23.466945
22.402406
20.995736
22.277832
21.389723
20.330548
##ZVALUE=230
43.014884
47.291517
76.926947
121.089816
161.804557
205.106735
224.745870
218.707919
200.661421
167.948008
116.507411
80.699921
58.321953
49.111843
47.798753
49.933791
49.876571
51.432848
43.383837
35.481453
27.709603
17.644763
13.034940
9.162426
7.875562
7.569790
9.451509
13.179779
17.740726
26.495457
36.392808
50.078630
63.542724
78.845620
91.115832
105.236769
114.247799
129.052997
130.172968
139.467716
138.870478
143.975616
142.706633
139.440894
139.082670
138.813853
129.512548
126.438737
124.177933
116.808414
112.174749
106.918812
105.619431
100.604892
97.855926
91.699958
91.145635
89.805722
84.646940
84.416866
81.930757
80.486536
80.854893
81.588626
80.719590
73.913932
78.129768
76.609850
76.865554
75.680614
73.099732
76.501966
76.193810
75.836778
76.899529
69.783926
69.705844
66.358447
64.943433
60.093999
58.970451
55.046678
53.101778
49.127936
48.294663
46.483874
43.393970
42.287707
41.626692
38.334727
37.429929
34.175515
34.360886
30.960441
30.059814
27.871728
##ZVALUE=235
14.255643
16.655922
33.938885
78.555942
129.823685
211.770535
281.994939
361.105800
404.282808
408.724546
353.615880
287.940502
196.507573
142.808557
90.615749
76.527596
69.734454
72.797537
79.093575
78.056455
71.079731
63.261986
49.826503
36.120415
25.908947
19.356608
16.082525
15.195608
22.356510
27.081966
37.657619
52.185655
68.270564
84.788799
103.916526
118.375421
135.073662
148.600936
157.786608
169.415474
173.416734
174.815655
170.943737
175.916553
174.134970
164.870620
165.243745
154.838562
152.485967
155.526996
149.816871
143.596530
143.167973
137.494802
131.979585
127.356648
129.874945
124.357939
126.586556
127.049685
125.752687
121.316910
123.592615
122.309923
119.555593
120.988488
122.062564
117.424726
113.877654
115.467906
113.821626
111.677647
110.962987
112.102628
110.099912
105.811954
100.701451
102.252960
94.800591
90.860724
83.049536
81.678629
78.594685
74.571967
67.091584
68.935752
63.556433
59.643984
58.188438
57.886839
54.515600
52.581429
49.806833
46.345592
43.077469
42.878985
##ZVALUE=240
2.820492
2.854466
6.970763
17.941594
44.555664
85.731745
188.263655
286.375880
435.611010
536.476970
609.249473
609.363914
551.686883
441.407561
349.266529
217.100978
153.423548
103.964806
85.283518
88.284612
98.397732
108.591914
103.126764
94.183683
78.697801
64.553618
46.205521
36.177635
28.847456
30.833483
33.929944
45.104623
53.615570
68.856478
80.749989
97.656846
108.084679
116.644502
123.187900
138.188601
144.189000
145.618916
150.532722
146.099925
148.675442
149.791837
151.375532
151.556730
151.184797
154.908895
149.492621
152.146816
151.562691
154.383779
151.307583
149.506927
155.914426
152.548552
154.867768
156.764984
155.141950
161.448717
157.324672
158.501863
158.210993
157.256722
157.995820
157.466531
155.897737
155.023932
151.586533
153.478980
149.257779
140.645504
142.657757
140.552521
134.496689
128.696561
128.251910
115.660429
113.029480
110.258460
105.357766
97.904801
93.706846
89.513659
85.634589
75.910687
75.095892
71.891546
68.687797
67.907572
60.664415
58.586001
58.246851
55.365562
##ZVALUE=245
2.645850
2.657771
2.374649
2.735853
4.118681
14.420748
35.117865
99.398494
180.373788
290.933847
474.250913
618.871450
738.103986
757.374763
710.117817
615.612864
446.335673
330.604911
233.215690
138.183832
99.739432
88.726878
103.504658
114.517808
118.872523
113.830566
107.568502
87.269545
73.131919
57.410598
47.083497
38.784742
37.361979
39.387941
44.105649
49.427748
55.970550
61.436892
70.021749
73.022842
75.546503
82.991719
86.812973
92.005730
95.173717
101.512671
105.615854
110.045671
117.212534
121.126771
127.215981
132.540464
135.537982
143.157840
147.067904
154.826641
160.014629
163.806677
167.114735
173.694491
178.471804
179.151893
185.316801
183.528662
182.735920
181.095004
184.260607
180.328488
174.406767
176.210999
177.293420
174.139738
167.339444
164.922476
159.043670
152.807832
150.726438
145.154595
138.063431
131.960511
127.481818
117.964745
114.516616
108.537674
101.241469
93.645453
90.498924
87.365508
80.922842
76.861978
72.658658
70.344806
65.262914
60.674548
59.509873
56.305528
##ZVALUE=250
2.222657
2.418756
2.154708
2.110600
2.859831
2.392530
3.597736
10.284781
28.404593
84.405541
165.403485
330.537558
486.238003
696.298480
823.141932
907.536745
891.949534
790.133476
659.483671
450.660586
304.750800
203.676820
113.833547
88.843703
93.622804
106.636882
124.273896
129.523873
126.548409
116.559863
100.327730
85.033774
66.407919
50.274730
42.887926
37.201643
36.827922
39.338470
39.012432
44.543743
49.807429
55.797696
60.660839
65.460801
72.658658
81.008673
82.791448
93.984604
98.150969
111.040473
117.651820
127.455592
133.108497
145.061612
154.447556
162.384510
170.033574
176.964998
186.358690
192.654729
204.115510
208.338499
213.103890
212.037563
215.263963
217.328668
216.266513
217.666626
209.589005
205.509663
202.510953
199.342966
194.441676
191.201568
183.628798
173.329711
170.291662
166.493654
157.325864
146.702528
139.425993
129.574537
126.620531
119.253993
111.822486
106.806755
97.787976
91.522932
88.485479
81.550479
77.071786
70.766807
69.634914
64.632893
60.072541
58.553815
##ZVALUE=255
1.968741
2.324581
2.183914
2.414584
2.406836
2.124906
2.484918
3.069639
2.968907
4.746914
24.853945
61.438680
132.326484
287.075043
448.339581
691.394806
847.314000
995.751023
1015.788913
950.153470
820.541978
656.621456
408.853889
253.916979
139.219761
96.274614
86.275935
92.820525
118.674636
128.499866
137.670636
139.610767
132.631660
112.685561
95.171928
73.384643
59.072971
48.726797
46.965480
45.028925
48.873425
54.000616
55.051446
63.738823
66.281557
74.157715
81.445575
88.742971
95.168948
105.349422
113.648772
124.605894
133.021474
142.562985
152.355433
166.455507
177.014470
189.935565
195.211768
204.349756
216.509700
220.303535
226.586461
229.085684
237.547755
238.367915
237.813592
234.768987
235.378742
233.491659
226.242542
223.294497
217.481852
209.874511
207.184553
193.424821
186.790824
181.833506
171.065927
159.011483
151.618719
141.588449
136.491656
125.644803
121.283531
113.485456
105.781555
100.426674
96.086860
86.766481
83.994865
77.026486
71.951747
68.158507
62.600970
59.407949
##ZVALUE=260
1.981854
2.087951
1.770854
1.909733
2.124906
2.149940
2.120733
2.354980
2.329946
2.552867
2.731681
3.193617
10.169744
43.861866
97.580552
234.537721
392.825603
640.887618
845.523477
1015.788913
1015.788913
1015.788913
998.730659
812.041759
539.693832
365.411639
209.786892
125.874877
82.191825
81.133842
96.369982
123.214722
140.884519
154.200792
156.274438
147.694945
134.669542
109.467506
93.981624
78.982711
65.887570
62.829852
63.104630
63.425899
65.739751
74.611902
78.324676
84.050894
90.303421
97.820759
105.508566
111.893415
118.044615
127.098560
135.125518
149.683952
153.992772
168.177485
176.230669
183.755755
193.466544
205.349922
206.979513
212.335587
218.010545
224.316716
223.499537
221.041441
223.226547
220.349431
215.360522
211.105943
207.460523
197.528005
192.375779
182.428956
178.644657
168.675780
162.061453
152.356625
146.212578
137.093663
127.927661
120.185614
114.471912
109.485984
103.817582
95.713735
89.744925
83.981752
78.894496
71.337819
66.664815
62.788725
58.983564
56.502819
##ZVALUE=265
1.899600
1.796484
2.056956
1.951456
2.097487
1.933575
2.101660
2.069473
2.088547
2.099872
2.618432
2.608895
2.571940
2.970695
8.156896
24.041533
90.629458
178.164840
317.660570
598.000884
843.641758
1015.788913
1015.788913
1015.788913
1015.788913
971.589684
765.857697
491.445661
321.142673
167.037845
104.744434
79.525709
91.204643
117.477775
142.692924
163.763762
173.497796
173.958540
166.805983
146.028996
128.012896
105.781555
92.383623
79.839826
76.797605
76.175928
77.783465
81.366897
84.225535
88.692904
90.821981
96.878409
101.435781
106.442571
112.350583
119.592547
125.047565
132.890940
140.318871
146.552920
150.873661
159.787536
164.452791
167.031884
172.810555
170.868635
172.785521
170.999765
175.640583
171.720982
167.205930
167.324543
161.455870
155.583620
152.239799
146.382451
141.858459
134.961605
132.377744
121.035576
116.643906
107.752681
101.840496
97.707510
92.074871
85.715652
82.380772
76.057911
72.675943
67.789555
62.290430
57.039857
55.615902
52.519441
50.455928
47.323704
##ZVALUE=270
1.658797
1.734495
1.760721
1.689792
1.848936
1.859665
1.722574
1.865625
1.708865
1.871586
2.039671
2.118945
1.997948
2.520680
2.494454
2.376437
3.380775
14.372468
45.565963
150.509477
296.752453
511.550903
851.477981
1015.802026
1015.802026
1015.802026
1015.802026
1015.802026
973.100662
723.232627
498.255491
268.037915
155.308843
88.024735
83.994865
106.740594
129.492879
159.223676
178.143978
189.736485
190.063715
176.573992
161.612630
137.100816
120.117664
102.229714
91.041923
83.236694
80.046654
80.075860
81.267953
84.986687
85.787773
89.203715
92.064738
96.311569
99.959970
101.926923
105.053782
109.332800
111.025572
115.913749
116.986632
118.405819
120.205879
119.712949
121.092796
120.594501
122.518539
119.178891
118.756890
115.745664
112.993717
110.878944
108.243823
103.731751
99.910498
94.843507
89.203715
87.032914
83.262920
77.808499
73.575974
70.539713
68.439841
62.913895
60.748458
55.898428
53.844452
50.883889
48.114657
43.426752
42.558908
39.762855
39.072633
37.248731
##ZVALUE=275
1.436472
1.411438
1.714826
1.658797
1.850724
1.783967
1.801848
1.755953
1.712441
1.449585
1.898408
2.129674
1.979470
1.978874
1.983643
2.310872
2.281666
2.397895
3.032684
7.087588
27.685761
84.817410
243.360400
444.261432
796.867609
1015.753746
1015.753746
1015.753746
1015.753746
1015.753746
1015.753746
933.219790
659.974813
363.342762
222.015977
110.936761
84.975958
91.258883
109.721422
140.779614
161.663890
187.145472
194.938779
192.195773
184.172988
160.380006
141.238570
119.376779
103.823543
91.752410
82.753897
81.124902
79.091787
81.118941
80.298781
82.042813
83.712935
85.409880
87.618828
87.891817
91.369748
91.677904
92.296600
95.572472
93.692541
95.047951
96.165538
94.167590
93.477964
92.110634
92.712641
90.574622
88.678002
87.504983
84.477663
82.194805
80.910921
77.060461
73.601604
71.735978
67.421794
64.220428
62.543750
59.549809
57.414770
53.728819
50.863624
47.041774
45.233965
43.583512
41.927695
37.792921
37.518740
35.012960
32.925606
32.779574
##ZVALUE=280
1.347661
1.536608
1.427531
1.338720
1.662970
1.467466
1.771450
1.659989
1.769662
1.716614
1.804829
1.718998
1.703501
1.759529
2.090931
2.036691
1.922846
2.252460
2.299547
2.573729
2.586842
3.459454
19.105673
65.905452
203.485489
367.568731
661.709905
943.017602
1015.786529
1015.786529
1015.786529
1015.786529
1015.786529
1010.870934
778.510571
447.348952
275.252461
139.182806
87.339878
72.442889
86.419582
111.195445
133.468509
160.146952
176.731944
185.480714
185.143948
172.305703
156.471729
133.529902
117.306709
98.569989
88.475943
80.336928
75.397491
75.491667
77.334642
80.217719
79.142451
83.437562
84.838867
86.915493
87.061524
87.689757
91.552734
89.375973
90.875626
89.761615
87.815523
88.837743
87.641478
85.940957
85.913539
83.235502
82.969666
80.361962
77.721477
75.201988
72.200894
70.882440
67.713857
63.782930
61.421990
59.110522
57.546496
52.601695
51.372647
48.762560
46.338439
43.784976
42.089820
39.759874
37.914515
36.579967
35.445690
32.961965
##ZVALUE=285
1.415610
1.518726
1.284480
1.493692
1.604557
1.601577
1.575947
1.456738
1.571774
1.579523
1.748800
1.597404
1.743436
1.799464
1.839995
1.707673
1.884699
2.019405
1.989603
2.167821
2.456903
2.494454
2.501607
2.769828
9.404421
34.661889
117.211938
240.035653
512.044430
784.841776
1015.788913
1015.788913
1015.788913
1015.788913
1015.788913
1015.788913
977.242589
624.959469
398.653746
194.436908
111.551881
60.911775
57.476759
76.326728
95.819831
125.678778
145.282745
163.146853
172.998905
174.358487
165.414810
147.882700
130.649805
111.392736
97.291470
83.493590
77.987909
74.963570
76.700449
78.406930
79.982877
82.566738
85.439682
88.463426
88.513494
90.403557
88.549852
91.268420
91.552734
90.720654
88.278651
90.555549
88.843703
86.480975
84.044933
82.753897
82.178712
77.880621
75.762868
72.936416
69.903731
67.488551
65.266490
62.855482
58.748722
57.873726
55.094957
52.301884
50.197840
47.002435
44.614673
42.937994
41.332841
38.949847
36.601424
35.904646
##ZVALUE=290
1.342893
1.313686
1.300573
1.404881
1.404881
1.439452
1.382828
1.385808
1.574755
1.356602
1.397729
1.615882
1.706481
1.550913
1.758933
1.901984
1.741648
1.942515
1.729727
1.986623
2.130866
2.143979
2.185702
2.613664
2.747774
3.053546
4.082918
14.425516
71.631670
167.243481
314.825773
643.043518
962.169766
1015.819907
1015.819907
1015.819907
1015.819907
1015.819907
1015.819907
813.046694
543.698668
276.360512
149.793625
65.568686
45.684576
49.922466
64.202547
87.485909
106.861591
133.900642
151.815414
162.192583
165.780783
156.490803
146.415830
123.501420
109.193921
94.316602
86.076856
79.285502
79.046488
78.163743
79.183578
81.954002
84.224939
86.080432
87.319613
89.355707
89.551806
87.732673
88.942647
86.574554
87.700486
86.890459
84.611773
81.419945
80.155730
77.678561
77.498555
74.191689
71.440935
68.606734
66.700578
63.911676
62.856674
58.969855
57.484508
53.414702
51.810741
49.594641
46.629906
44.402480
42.135715
40.520430
39.376616
37.735701
##ZVALUE=295
1.416802
1.362562
1.176596
1.177788
1.293421
1.230836
1.397729
1.421571
1.301765
1.417994
1.491904
1.330972
1.480579
1.448989
1.636744
1.392961
1.548529
1.507998
1.777411
1.704693
1.603961
2.043843
1.966953
2.020597
2.044439
2.280474
2.699494
2.748966
3.156662
7.625818
28.405786
120.454431
256.136656
552.051663
843.989849
1015.788913
1015.788913
1015.788913
1015.788913
1015.788913
1015.788913
951.630473
669.832826
357.334018
200.717449
81.870556
43.979883
34.169555
41.808486
59.609413
76.712966
102.561712
121.398568
144.743919
155.382752
158.502460
153.226852
138.559937
125.137568
108.487606
97.449422
87.467432
81.921816
79.285502
80.426931
81.497431
81.860423
82.035661
84.819794
83.282590
84.038973
85.086823
83.430409
83.055496
81.769824
78.680515
78.614950
75.625777
73.297620
73.083639
70.018768
66.872835
66.392422
63.023567
60.525537
58.819652
56.254864
53.598881
51.743984
48.696995
46.841502
44.401884
42.383671
40.076971
38.930774
37.242770
##ZVALUE=300
1.147985
1.402497
1.289845
1.264811
1.164675
1.271963
1.418591
1.339912
1.279712
1.353621
1.369715
1.219511
1.606941
1.506805
1.434684
1.397729
1.655817
1.365542
1.601577
1.573563
1.702905
1.919866
1.670718
1.700521
1.976490
2.204776
2.282858
2.301931
2.642870
2.642870
3.055930
3.789663
16.246438
59.226751
193.740726
371.106863
726.943612
1011.266708
1015.788913
1015.788913
1015.788913
1015.788913
1015.788913
1015.788913
811.445713
543.222427
284.558535
159.973502
64.318776
34.056902
30.585527
37.755966
54.771900
70.117712
96.396804
116.648674
139.686465
151.289701
156.626701
154.375434
141.825676
129.298568
112.880468
101.125836
89.794993
83.783865
80.769658
78.952909
79.639554
79.649687
80.333948
80.316663
79.830885
79.198480
78.127980
76.305866
74.637532
72.723627
70.537925
68.828464
66.834688
65.449476
63.190460
61.530471
57.942867
56.762695
54.588914
52.382946
49.821734
48.175454
45.702457
43.752789
41.647553
39.698482
37.981868
36.971569
##ZVALUE=305
1.393557
1.234412
1.277924
1.353621
1.171827
1.344681
1.312494
1.228452
1.267791
1.267791
1.284480
1.338720
1.441836
1.308918
1.434684
1.490712
1.577735
1.636744
1.655817
1.658797
1.622438
1.713634
1.705885
1.713634
1.822710
1.829863
1.958609
1.935959
2.171993
2.311468
2.411604
2.508759
2.709627
3.265738
6.273985
41.435957
114.483833
307.042599
537.226796
940.119028
1015.788913
1015.788913
1015.788913
1015.788913
1015.788913
1015.788913
989.457965
631.679893
400.618911
190.178752
99.378824
40.855408
27.888417
31.168461
40.013790
57.796836
74.673891
99.215508
118.134618
140.061975
151.251554
154.474974
150.875449
141.068697
128.902793
112.343431
100.566745
88.648796
82.352757
77.865720
76.281428
75.443983
74.627995
72.935820
72.409511
72.772503
70.793629
68.992972
66.993833
65.795779
64.121485
61.762929
59.415698
57.723522
56.234598
53.391457
51.836967
49.570799
48.447847
46.108961
44.458508
42.539835
40.860772
38.936734
36.851764
35.047531
##ZVALUE=310
1.154542
1.240969
1.262426
1.237988
1.192689
1.349449
1.146793
1.213551
1.221895
1.171827
1.164675
1.430511
1.361966
1.463890
1.500845
1.545548
1.406670
1.359582
1.341701
1.320839
1.334548
1.581907
1.578927
1.432896
1.733899
1.845956
1.632571
1.843572
1.874566
1.967549
2.070665
2.204776
2.402663
2.535582
2.768636
3.163815
3.817677
18.208623
63.573718
206.318498
389.518738
762.057900
1015.788913
1015.788913
1015.788913
1015.788913
1015.788913
1015.788913
1015.788913
849.393606
565.519929
284.773707
155.782700
61.561465
33.444762
28.197765
33.128858
43.798685
55.786967
76.519847
94.087720
117.413998
132.388473
146.240592
150.937438
147.537589
139.260888
122.656822
109.148622
92.904568
83.327889
74.489713
71.750879
66.252947
64.855814
63.174963
62.133670
59.686899
60.188770
58.533549
57.306886
55.810809
53.774714
52.496791
51.876903
48.657656
48.132539
45.663714
44.937730
42.364001
40.684938
38.589835
37.601590
35.181642
34.556985
33.212900
##ZVALUE=315
1.127720
1.075864
1.184940
1.246929
1.224875
1.108646
1.254678
1.183748
1.329780
1.146793
1.406670
1.370907
1.245737
1.195669
1.260638
1.199841
1.291633
1.287460
1.409650
1.252890
1.602769
1.413822
1.639724
1.621842
1.673698
1.605749
1.574755
1.726747
1.831651
1.879930
1.951456
1.962781
1.901984
2.225637
2.261996
2.530813
2.603531
2.774000
3.243685
8.831620
34.328699
135.397911
280.877948
600.711703
933.628678
1015.788913
1015.788913
1015.788913
1015.788913
1015.788913
1015.788913
1010.880470
749.092698
401.702523
222.413540
84.337592
42.144656
28.591752
30.172467
36.773682
42.721629
56.360960
69.870949
90.572834
106.142759
125.316978
133.997798
137.429833
132.997632
122.114420
110.057592
92.722774
80.989599
67.663789
62.036514
55.708885
52.614808
51.507950
49.606562
50.120950
48.809648
46.832561
46.562552
44.022799
43.957829
41.320920
41.299462
39.500594
38.425922
37.451982
35.966635
34.433603
33.006668
32.034516
30.482411
30.027628
##ZVALUE=320
1.150966
1.102686
1.029968
1.184940
1.077652
1.165867
1.121759
1.232624
1.242757
1.176000
1.165867
1.189709
1.319647
1.182556
1.200438
1.180768
1.299977
1.288652
1.228452
1.397729
1.266599
1.471639
1.613498
1.465678
1.443624
1.665950
1.557469
1.566410
1.637936
1.662970
1.589656
1.825690
1.922846
1.819730
1.850724
2.155900
2.105832
2.270937
2.503991
2.671480
3.041625
4.378557
15.401840
80.373883
195.709467
474.177599
750.522017
1015.796661
1015.796661
1015.796661
1015.796661
1015.796661
1015.796661
1015.796661
895.956755
500.023961
286.674500
125.740767
60.766935
28.236508
24.746656
27.268529
29.404759
37.410855
45.461655
60.158968
74.371696
92.541575
106.660724
117.421746
120.043755
116.446614
109.381676
91.999769
78.241825
63.672662
55.318475
46.185851
42.491555
39.954782
38.372874
36.536455
36.171675
36.036968
35.547614
34.947991
33.594966
33.162832
31.579733
31.151772
29.854774
28.528571
27.904510
27.578473
26.259422
25.632977
##ZVALUE=325
1.066923
1.061559
1.126528
1.173615
1.212955
1.021624
1.137853
1.094937
1.203418
1.049638
1.040697
1.146793
1.190901
1.082420
1.069903
1.200438
1.234412
1.396537
1.437664
1.284480
1.419783
1.398921
1.221895
1.150966
1.351833
1.423955
1.290441
1.405478
1.472831
1.525879
1.522899
1.667738
1.538992
1.748800
1.603961
1.834631
1.977682
2.118945
2.153516
2.298951
2.672672
2.732873
2.887845
3.458858
8.700490
56.052804
143.388510
358.279943
603.818893
1000.195742
1015.788913
1015.788913
1015.788913
1015.788913
1015.788913
1015.788913
989.126563
603.435040
366.622806
170.242786
83.162785
29.720664
19.763708
18.961430
20.564795
24.496913
29.334426
39.735436
49.894452
67.260861
80.156922
95.856786
103.335977
104.500651
102.660656
90.044737
79.676509
64.616799
54.180622
42.238832
36.828518
31.680465
30.151606
28.723478
28.741956
28.444529
27.500987
26.604533
26.624799
25.918484
25.097728
24.389625
24.695992
23.974776
23.329854
22.709966
##ZVALUE=330
1.046658
1.013875
0.937581
0.952482
1.097918
1.139641
1.167655
1.067519
1.174808
1.181960
1.235604
1.091957
1.189709
1.034737
1.130700
0.983477
1.174808
1.185536
1.235604
1.320839
1.267791
1.249909
1.208782
1.284480
1.333952
1.322627
1.376867
1.451969
1.361966
1.441836
1.633763
1.383424
1.560450
1.639724
1.498461
1.576543
1.668930
1.760721
2.070665
1.976490
2.003908
2.183914
2.456903
2.560616
2.896786
3.172755
4.614592
25.200844
80.130696
246.396661
447.392464
838.104486
1015.794873
1015.794873
1015.794873
1015.794873
1015.794873
1015.794873
1015.794873
759.220719
479.685664
226.446986
112.592578
41.467547
20.038486
15.044808
15.675426
17.109513
19.613504
25.487542
32.769442
44.756532
55.990815
71.952939
83.807707
91.775656
93.683004
89.477897
81.295967
67.500472
57.756901
44.379830
37.264824
30.434728
27.224422
24.630427
23.897886
22.892952
23.049712
22.358894
21.877885
21.218657
21.305680
21.047592
20.614862
20.603538
##ZVALUE=335
0.985861
1.014471
1.014471
1.095533
1.014471
1.245737
0.973940
1.089573
1.023412
1.124740
1.049638
1.196861
0.964999
1.100898
1.167655
1.129508
1.209974
1.094937
1.232624
1.276731
0.999570
1.046658
1.258850
1.172423
1.314878
1.379848
1.172423
1.178980
1.436472
1.373887
1.406670
1.540780
1.480579
1.415610
1.502633
1.498461
1.613498
1.627803
1.591444
1.798868
1.980662
2.021790
2.096891
2.180934
2.310872
2.479553
2.495646
3.018975
3.558993
11.346936
42.437911
158.155560
322.328806
671.576858
989.696980
1015.788913
1015.788913
1015.788913
1015.788913
1015.788913
1015.788913
933.965445
621.694922
317.543745
167.323947
58.528781
24.864674
14.000535
13.154745
13.991594
14.946461
17.551780
21.678805
29.863715
39.514899
52.853823
64.109564
75.968504
81.676841
84.930658
81.299543
72.503686
63.688755
52.728653
42.842627
34.407973
28.611422
23.899674
21.555424
20.312667
19.810796
19.248724
19.122958
19.179583
18.777847
18.682480
##ZVALUE=340
1.009703
1.025796
0.940561
1.035929
0.962615
0.998974
1.074672
1.060963
1.089573
1.015663
1.048446
1.081824
1.167655
1.107454
1.087785
0.941753
1.107454
1.159906
1.072884
1.143813
1.168847
1.060963
1.210570
1.177788
1.183748
1.262426
1.344681
1.260638
1.144409
1.239777
1.193881
1.322627
1.429915
1.362562
1.425743
1.374483
1.501441
1.543760
1.526475
1.633763
1.811981
1.897812
1.876950
1.899600
2.132654
2.018809
2.315640
2.584457
2.731681
2.906919
3.208518
5.738735
21.592975
100.233555
228.749514
531.291962
860.262513
1015.788913
1015.788913
1015.788913
1015.788913
1015.788913
1015.788913
1015.788913
791.592002
399.472713
220.912695
88.163614
36.224723
14.219880
12.567639
12.618899
12.945533
14.178753
16.541481
21.060705
26.811957
36.718845
47.118664
61.159730
69.839954
77.001452
78.834891
75.192451
69.989562
58.779716
50.236583
38.757920
32.082796
25.486946
21.648407
18.877983
17.946959
17.445683
16.834736
16.799569
##ZVALUE=345
1.041889
1.101494
1.017451
1.053810
1.038909
1.006722
0.994802
1.147985
0.979900
1.042485
0.960827
1.066923
1.192689
1.210570
1.081824
1.205802
1.167655
1.096725
1.133680
1.057982
1.135468
1.052618
1.176596
1.088977
1.336932
1.162887
1.253486
1.229644
1.361966
1.308918
1.300573
1.361966
1.297593
1.313686
1.275539
1.376867
1.464486
1.494884
1.525879
1.453757
1.518726
1.630783
1.632571
1.814961
1.797676
1.938939
2.081990
2.029538
2.120733
2.399683
2.448559
2.875924
3.033876
3.761649
9.360909
58.346987
155.665874
388.032794
675.985813
1015.788913
1015.788913
1015.788913
1015.788913
1015.788913
1015.788913
1015.788913
973.465443
574.401021
319.635868
121.620893
54.288507
18.306971
12.369752
11.800528
11.609793
11.990666
12.382865
14.730692
17.429590
25.298595
32.945871
44.936538
53.470731
62.430501
68.275928
71.766973
70.145726
63.757896
56.993961
46.585798
37.901998
29.116869
24.155974
19.284487
17.444491
16.211867
##ZVALUE=350
1.093745
0.995994
0.959635
0.957847
1.011491
0.957847
1.084805
1.010895
0.931621
1.060963
1.210570
1.163483
1.033545
1.025796
1.200438
1.063943
1.072884
1.223683
1.137853
1.209974
1.096725
0.955462
1.154542
1.163483
1.204610
1.136661
1.129508
1.167655
1.304746
1.283884
1.202822
1.354814
1.323819
1.332760
1.206994
1.464486
1.483560
1.354814
1.420975
1.523495
1.487732
1.539588
1.542568
1.567602
1.714826
1.675487
1.841784
1.934767
2.019405
2.078414
1.972914
2.241731
2.470613
2.612472
2.817512
3.185868
5.075932
29.392838
90.113878
260.032415
475.852489
883.037448
1015.784740
1015.784740
1015.784740
1015.784740
1015.784740
1015.784740
1015.784740
628.761649
377.175808
168.144703
77.620745
22.627711
10.075569
10.170937
10.178685
9.939671
10.109544
11.241436
12.840629
16.573668
20.977855
29.004812
36.584735
47.300458
54.746866
61.400533
64.551830
63.437819
59.426427
50.217509
43.265820
33.543706
27.971864
21.829605
##ZVALUE=355
1.123548
1.036525
1.201630
0.835657
0.958443
1.135468
1.055598
1.098514
0.937581
1.063943
1.118779
1.039505
1.077652
0.995994
1.113415
1.297593
1.069903
1.196861
1.195669
1.099706
1.018643
1.286864
1.214743
1.250505
1.260638
1.358986
1.133680
1.228452
1.234412
1.225471
1.128912
1.090765
1.307726
1.182556
1.394749
1.445413
1.420975
1.474619
1.370907
1.500845
1.591444
1.520514
1.440644
1.444817
1.638532
1.817942
1.773834
1.686811
1.782775
1.890659
1.975894
1.813769
2.109408
2.113581
2.406836
2.541542
2.773404
3.180504
3.775954
14.249682
50.435662
173.988938
340.839624
674.469471
980.046988
1015.784740
1015.784740
1015.784740
1015.784740
1015.784740
1015.784740
804.015994
506.196618
216.479897
100.540519
30.300617
13.855696
9.777546
9.410977
9.430647
9.188652
9.771585
10.329485
11.728406
13.684630
18.897653
23.903847
33.024549
39.893985
49.393773
54.641962
58.494806
58.106780
53.202510
48.246980
40.056705
##ZVALUE=360
1.150966
1.051426
1.037717
1.093745
0.930429
1.120567
1.137853
1.149774
1.123548
1.095533
1.054406
1.095533
1.016855
1.207590
1.076460
1.162887
1.236796
0.961423
1.105666
1.072884
1.171827
1.246929
1.099706
1.268983
1.104474
1.249909
1.390576
1.237988
1.374483
1.349449
1.398921
1.237988
1.553893
1.433492
1.387596
1.328588
1.432896
1.416802
1.279712
1.509786
1.366735
1.598597
1.741648
1.556873
1.648664
1.573563
1.677871
1.799464
1.743436
1.749992
1.901984
1.986623
2.040863
2.035499
2.027750
2.388954
2.350807
2.614856
2.924800
3.149509
3.613830
6.544590
22.902489
95.057487
216.337442
500.943661
794.572830
1015.807986
1015.807986
1015.807986
1015.807986
1015.807986
1015.807986
983.914733
667.964816
313.066840
155.748725
53.561926
20.653605
9.673834
8.675456
8.597970
8.821487
8.836985
8.946657
9.116530
10.162592
12.497902
15.192628
20.763874
26.874542
36.079884
42.124987
48.554540
52.187443
53.475499
##ZVALUE=365
1.252890
1.084805
1.017451
1.019835
1.169443
0.916719
1.040697
1.038909
1.076460
1.027584
1.092553
0.996590
1.084805
1.027584
1.163483
1.192689
1.058578
1.160502
1.181960
1.084805
1.102686
0.981688
1.171827
1.108646
1.185536
1.263618
1.134872
1.170635
1.305938
1.318455
1.367927
1.208782
1.228452
1.201630
1.307726
1.278520
1.285672
1.362562
1.450777
1.429915
1.506805
1.519918
1.509786
1.568794
1.424551
1.434684
1.603961
1.667738
1.572967
1.887679
1.786947
1.740456
1.930594
1.846552
2.009869
2.032518
2.009869
2.130866
2.448559
2.624989
2.785921
3.096461
3.624558
4.016757
9.567738
54.324865
141.637921
357.371569
614.358783
991.804600
1015.788913
1015.788913
1015.788913
1015.788913
1015.788913
1015.788913
822.176933
436.021686
230.203867
80.400705
31.118989
10.265708
8.447766
8.067489
7.946491
7.801652
7.798672
7.784963
8.001924
9.232759
10.542870
13.828874
17.613769
23.463964
29.670000
37.230849
##ZVALUE=370
1.070499
1.316667
1.178980
1.127720
0.966787
1.116991
1.071692
1.217723
1.144409
1.203418
1.119971
1.094937
1.158714
1.093745
1.259446
1.335740
1.302958
1.264811
1.225471
1.069903
1.208782
1.149774
1.034737
1.305938
1.339912
1.246929
1.114607
1.180768
1.318455
1.335740
1.309514
1.293421
1.372695
1.351833
1.260638
1.279712
1.288652
1.490712
1.357794
1.431704
1.383424
1.414418
1.474619
1.409650
1.572967
1.525879
1.555681
1.544952
1.537800
1.671910
1.684427
1.778603
1.811981
1.784563
1.855493
1.735687
2.131462
2.027750
2.229810
2.253652
2.426505
2.610683
2.680421
2.844930
3.053546
3.623962
5.677938
33.185482
103.684664
300.277472
524.207950
950.552821
1015.875936
1015.875936
1015.875936
1015.875936
1015.875936
1015.875936
1015.875936
578.031540
306.694508
112.358928
48.382878
15.765429
8.878708
7.595420
7.446408
7.272959
7.214546
7.202625
7.661581
7.652640
8.407831
9.936690
11.633635
15.513897
##ZVALUE=375
0.982881
0.957847
1.027584
1.011491
0.882745
0.988841
1.075864
0.944734
0.938773
0.990629
1.048446
1.068711
0.983477
1.063943
0.905991
0.884533
1.154542
0.990629
0.953674
1.194477
1.008511
1.214743
1.261830
1.072884
1.198649
1.070499
1.257658
1.041889
1.092553
1.090765
1.115799
1.172423
1.116991
1.135468
1.103878
1.282692
1.250505
1.254678
1.211762
1.247525
1.286864
1.472831
1.470447
1.486540
1.267791
1.344681
1.239777
1.357794
1.346469
1.455545
1.563430
1.715422
1.546741
1.574755
1.452565
1.561642
1.726747
1.770854
1.754761
1.921654
1.842976
2.056956
2.016425
2.115965
2.504587
2.619624
2.816916
3.078580
3.853440
16.534925
55.855513
182.215571
362.829566
746.613741
1015.788913
1015.788913
1015.788913
1015.788913
1015.788913
1015.788913
1015.788913
768.324733
469.512939
224.459767
105.480552
30.283928
11.710525
7.339716
7.237792
6.839633
6.834865
6.888509
6.859899
7.029772
6.991625
7.661581
##ZVALUE=380
0.975728
1.010895
1.025796
1.083612
0.977516
0.882745
0.989437
0.901818
0.968575
1.001954
1.033545
0.914931
0.901818
0.959635
1.077652
0.861883
0.975728
1.074672
0.951886
0.985861
1.073480
1.059771
1.056790
1.149774
1.004934
1.122952
1.070499
1.132488
1.110435
1.156926
1.111627
1.211762
1.170635
1.349449
1.225471
1.243949
1.301765
1.328588
1.211762
1.308918
1.358986
1.380444
1.359582
1.321435
1.309514
1.291633
1.407862
1.387596
1.504421
1.465678
1.473427
1.472831
1.579523
1.401901
1.483560
1.497865
1.427531
1.504421
1.690984
1.604557
1.893640
1.846552
1.928806
1.939535
1.985431
2.042651
2.276897
2.642870
3.021955
3.062487
3.608465
6.660819
38.728714
108.074546
289.545655
519.202948
943.909883
1015.788913
1015.788913
1015.788913
1015.788913
1015.788913
1015.788913
1013.481617
627.496839
365.688801
144.110918
60.975552
15.248656
7.908940
6.590486
6.495714
6.436706
6.263852
6.563663
6.325841
##ZVALUE=385
0.784993
0.873804
1.121759
0.798702
0.915527
0.985861
0.894666
0.892878
0.870824
0.997782
1.056790
0.815988
0.922680
0.920892
0.797510
0.812411
1.012683
0.883937
0.884533
1.043677
0.918508
1.042485
0.836849
0.926852
1.066923
1.010895
1.039505
1.026988
1.081824
1.116991
1.160502
1.170635
1.270771
1.306534
1.260638
1.359582
1.497865
1.444817
1.438856
1.406670
1.641512
1.482964
1.511574
1.608729
1.484752
1.526475
1.463890
1.330972
1.332760
1.494884
1.445413
1.447797
1.466870
1.342893
1.468658
1.497865
1.541972
1.703501
1.598597
1.731515
1.646876
1.655817
1.755953
1.848936
1.858473
1.897812
2.025962
2.119541
2.410412
2.667904
2.804995
3.063679
3.255606
4.261732
13.500452
70.605874
171.556473
410.733819
683.863759
1015.788913
1015.788913
1015.788913
1015.788913
1015.788913
1015.788913
1015.788913
820.045471
448.126793
253.944397
99.897981
36.924481
9.337664
6.644726
6.061792
5.797744
5.779862
##ZVALUE=390
0.917912
0.790954
0.977516
0.901818
0.876784
0.923872
0.882745
0.835657
0.880957
0.878572
1.043677
0.993609
0.976920
1.068711
0.751615
0.857711
0.793934
0.956655
0.904799
0.936985
0.920892
0.956655
0.877976
0.958443
0.877976
1.123548
1.100898
1.097918
1.206994
1.211762
1.400709
1.223683
1.473427
1.414418
1.475811
1.532435
1.527667
1.651645
1.814961
1.575947
1.668930
1.703501
1.524687
1.653433
1.600981
1.740456
1.638532
1.675487
1.620650
1.682639
1.665950
1.701713
1.698732
1.702905
1.651645
1.637936
1.674891
1.742840
1.812577
1.852512
1.717806
1.822710
1.834631
1.856685
1.983643
1.770854
2.090931
2.255440
2.514720
2.572536
2.536774
2.713799
2.831817
2.940893
3.126860
3.664494
6.685853
38.509965
107.701421
302.335620
544.816852
968.945026
1015.788913
1015.788913
1015.788913
1015.788913
1015.788913
1015.788913
1008.191705
643.668771
374.927521
148.680806
67.672729
18.649697
7.756948
6.081462
##ZVALUE=395
0.755787
0.832677
0.863671
0.800490
0.831485
0.825524
0.961423
0.735521
0.773668
0.811815
0.820756
0.916719
0.924468
0.754595
0.807643
0.926852
0.815988
0.926852
0.947714
0.887513
0.945926
0.912547
0.910759
0.953674
0.955462
0.977516
1.024604
0.988841
1.095533
1.174808
1.208782
1.329780
1.346469
1.526475
1.537800
1.691580
1.770854
1.778603
1.840591
1.804829
1.718998
1.846552
1.809597
1.978874
1.918674
1.825690
1.743436
1.879930
1.854897
1.788735
1.784563
1.631975
1.606941
1.809597
1.587868
1.703501
1.823902
1.819730
1.833439
1.799464
1.770854
1.726747
1.878738
2.085567
1.896620
1.984835
2.033710
2.280474
2.251863
2.615452
2.472997
2.580881
2.531409
2.703667
2.543926
2.694726
2.809763
3.053546
4.074574
22.691488
76.213479
235.272646
424.350500
758.860707
1015.747786
1015.747786
1015.747786
1015.747786
1015.747786
1015.747786
1015.747786
780.778527
485.307574
211.095810
98.709464
29.851794
##ZVALUE=400
0.929832
0.827909
0.951886
0.997782
0.989437
0.968575
0.922680
0.925660
0.862479
0.795722
0.938773
0.971556
0.801682
0.880957
0.906587
0.861883
0.930429
1.004934
0.940561
0.889897
1.039505
0.758767
0.901818
0.874996
1.050830
1.062751
1.082420
1.122952
1.184940
1.245737
1.129508
1.263618
1.432896
1.518726
1.522899
1.563430
1.593828
1.774430
1.746416
1.831651
1.983643
1.880527
1.975894
2.099872
1.973510
1.989603
1.923442
1.779795
1.887679
1.768470
1.794696
1.819730
1.764894
1.862645
1.974702
1.746416
1.931787
1.901984
2.017617
1.881719
1.875758
2.019405
1.912713
1.982450
2.106428
2.201796
2.258420
2.528429
2.458692
2.814531
2.762675
2.803802
2.803802
2.637506
2.584457
2.729893
2.731681
2.765656
2.953410
3.147721
3.537536
11.571646
42.445660
150.167942
300.063491
615.719557
929.157734
1015.788913
1015.788913
1015.788913
1015.788913
1015.788913
1015.788913
976.372957
658.072829
328.030586
##END
