Data from 2018-3-6_conc=0_n=1_RamanShift_08.txt Node
Date: Tue Mar 06 12:07:49 GMT+02:00 2018
User: LAB3
Spectrometer: QEPB0276
Trigger mode: 0
Integration Time (sec): 3.000000E1
Scans to average: 1
Electric dark correction enabled: true
Nonlinearity correction enabled: false
Boxcar width: 0
XAxis mode: Raman Shifts
Number of Pixels in Spectrum: 1044
>>>>>Begin Spectral Data<<<<<
160.701	68
166.742	103
172.777	176
178.805	408
184.826	955
190.841	1941
196.849	3084
202.85	3947
208.845	4295
214.833	4315
220.815	4289
226.789	4349
232.758	4369
238.719	4430
244.674	4421
250.623	4448
256.565	4414
262.5	4376
268.429	4380
274.351	4350
280.267	4369
286.176	4384
292.079	4419
297.975	4408
303.865	4429
309.748	4458
315.625	4463
321.495	4483
327.359	4444
333.217	4474
339.068	4479
344.912	4491
350.751	4524
356.583	4573
362.408	4569
368.227	4585
374.04	4597
379.847	4622
385.647	4633
391.44	4645
397.228	4666
403.009	4723
408.784	4731
414.553	4784
420.315	4785
426.071	4816
431.821	4874
437.565	4866
443.302	4898
449.033	4833
454.758	4785
460.477	4733
466.189	4667
471.896	4673
477.596	4622
483.29	4592
488.978	4602
494.66	4524
500.335	4449
506.005	4311
511.668	4143
517.325	4010
522.977	3863
528.622	3747
534.261	3719
539.894	3657
545.521	3608
551.141	3573
556.756	3539
562.365	3523
567.968	3516
573.565	3465
579.155	3455
584.74	3439
590.319	3439
595.892	3441
601.459	3453
607.02	3434
612.575	3397
618.124	3382
623.667	3321
629.204	3276
634.735	3237
640.261	3227
645.781	3184
651.294	3178
656.802	3165
662.304	3177
667.8	3179
673.29	3167
678.775	3151
684.254	3172
689.726	3133
695.193	3131
700.655	3100
706.11	3107
711.56	3095
717.004	3088
722.442	3047
727.874	3055
733.301	3035
738.722	3018
744.137	3014
749.547	2995
754.951	3013
760.349	3009
765.741	3045
771.128	3043
776.509	3060
781.885	3086
787.254	3142
792.618	3120
797.977	3137
803.33	3100
808.677	3115
814.019	3089
819.355	3058
824.686	3005
830.011	3013
835.33	3006
840.644	3032
845.952	2993
851.255	3033
856.552	3033
861.844	3065
867.13	3146
872.41	3384
877.686	3715
882.955	4001
888.219	3956
893.478	3544
898.731	3172
903.979	2924
909.221	2804
914.458	2770
919.69	2735
924.916	2711
930.136	2715
935.351	2719
940.561	2726
945.766	2707
950.965	2702
956.158	2687
961.347	2637
966.529	2655
971.707	2611
976.879	2568
982.046	2555
987.208	2535
992.364	2564
997.515	2574
1002.66	2578
1007.801	2622
1012.936	2665
1018.066	2681
1023.19	2735
1028.309	2745
1033.423	2786
1038.532	2811
1043.636	2870
1048.734	2986
1053.827	2956
1058.915	2855
1063.998	2801
1069.075	2716
1074.147	2743
1079.214	2762
1084.276	2873
1089.333	2912
1094.385	2926
1099.431	2843
1104.472	2763
1109.509	2649
1114.54	2606
1119.565	2554
1124.586	2503
1129.602	2452
1134.613	2435
1139.618	2418
1144.619	2380
1149.614	2390
1154.604	2380
1159.589	2372
1164.57	2411
1169.545	2389
1174.515	2399
1179.48	2384
1184.44	2363
1189.395	2346
1194.345	2334
1199.29	2318
1204.23	2294
1209.165	2306
1214.095	2335
1219.021	2342
1223.941	2335
1228.856	2366
1233.766	2367
1238.672	2381
1243.572	2374
1248.467	2363
1253.358	2325
1258.244	2324
1263.124	2302
1268	2290
1272.871	2259
1277.737	2297
1282.599	2314
1287.455	2298
1292.306	2291
1297.153	2245
1301.995	2251
1306.832	2218
1311.664	2235
1316.491	2223
1321.314	2219
1326.132	2189
1330.945	2164
1335.753	2115
1340.556	2079
1345.354	2026
1350.148	2024
1354.937	2026
1359.722	1999
1364.501	1959
1369.276	1983
1374.046	2003
1378.811	2000
1383.572	2017
1388.327	2029
1393.079	2025
1397.825	2009
1402.567	1988
1407.304	1986
1412.036	1978
1416.764	1978
1421.487	1988
1426.205	1988
1430.919	2025
1435.628	2056
1440.333	2088
1445.032	2162
1449.727	2256
1454.418	2392
1459.104	2488
1463.785	2439
1468.462	2295
1473.134	2137
1477.802	2035
1482.465	1986
1487.123	1988
1491.777	1962
1496.426	1909
1501.071	1902
1505.711	1880
1510.347	1879
1514.978	1845
1519.604	1840
1524.226	1867
1528.844	1820
1533.457	1819
1538.065	1803
1542.669	1762
1547.269	1750
1551.864	1763
1556.454	1735
1561.041	1737
1565.622	1702
1570.199	1715
1574.772	1728
1579.34	1727
1583.904	1740
1588.464	1751
1593.019	1750
1597.569	1730
1602.115	1707
1606.657	1697
1611.195	1697
1615.728	1691
1620.256	1657
1624.78	1639
1629.3	1682
1633.816	1676
1638.327	1677
1642.834	1674
1647.336	1688
1651.834	1706
1656.328	1706
1660.817	1703
1665.302	1684
1669.783	1664
1674.259	1649
1678.732	1613
1683.199	1606
1687.663	1550
1692.122	1531
1696.577	1515
1701.028	1497
1705.474	1456
1709.917	1458
1714.355	1445
1718.788	1432
1723.218	1415
1727.643	1376
1732.064	1387
1736.481	1345
1740.893	1363
1745.301	1316
1749.705	1248
1754.105	1266
1758.501	1234
1762.893	1219
1767.28	1186
1771.663	1175
1776.042	1164
1780.417	1165
1784.787	1177
1789.154	1186
1793.516	1191
1797.874	1185
1802.228	1183
1806.578	1162
1810.924	1162
1815.266	1089
1819.603	1149
1823.937	1127
1828.266	1110
1832.591	1092
1836.913	1087
1841.23	1090
1845.543	1075
1849.852	1086
1854.156	1080
1858.457	1092
1862.754	1073
1867.047	1083
1871.335	1091
1875.62	1083
1879.9	1084
1884.177	1076
1888.449	1071
1892.718	1073
1896.982	1082
1901.243	1059
1905.499	1067
1909.752	1044
1914	1033
1918.245	1055
1922.485	1072
1926.722	1056
1930.954	1061
1935.183	1085
1939.408	1088
1943.628	1060
1947.845	1068
1952.058	1043
1956.267	1026
1960.472	1024
1964.673	997
1968.87	991
1973.063	949
1977.252	951
1981.438	939
1985.619	927
1989.797	915
1993.971	919
1998.14	937
2002.306	898
2006.469	913
2010.627	904
2014.781	898
2018.932	894
2023.078	891
2027.221	891
2031.36	860
2035.495	878
2039.627	861
2043.754	849
2047.878	823
2051.998	826
2056.114	834
2060.226	844
2064.334	842
2068.439	847
2072.54	864
2076.637	835
2080.73	851
2084.82	852
2088.906	849
2092.988	850
2097.066	849
2101.14	856
2105.211	847
2109.278	837
2113.342	818
2117.401	809
2121.457	789
2125.509	790
2129.558	785
2133.602	776
2137.643	764
2141.681	769
2145.714	759
2149.744	759
2153.77	750
2157.793	727
2161.812	705
2165.827	717
2169.838	718
2173.846	704
2177.851	683
2181.851	685
2185.848	689
2189.841	681
2193.831	657
2197.817	651
2201.799	664
2205.778	644
2209.753	637
2213.725	642
2217.693	656
2221.657	635
2225.618	642
2229.575	637
2233.529	632
2237.479	644
2241.425	614
2245.368	595
2249.307	612
2253.243	599
2257.175	594
2261.104	577
2265.029	587
2268.95	575
2272.868	572
2276.783	550
2280.694	566
2284.601	550
2288.505	558
2292.405	549
2296.302	530
2300.195	528
2304.085	492
2307.971	515
2311.854	493
2315.734	505
2319.609	503
2323.482	472
2327.351	492
2331.216	482
2335.078	485
2338.937	480
2342.792	470
2346.643	469
2350.492	474
2354.336	477
2358.178	471
2362.015	475
2365.85	465
2369.681	469
2373.508	467
2377.333	475
2381.153	456
2384.971	470
2388.785	471
2392.595	460
2396.402	449
2400.206	424
2404.007	453
2407.804	442
2411.597	448
2415.388	446
2419.174	440
2422.958	440
2426.738	434
2430.515	446
2434.289	429
2438.059	417
2441.825	425
2445.589	434
2449.349	409
2453.106	418
2456.859	409
2460.61	418
2464.356	401
2468.1	395
2471.84	384
2475.577	386
2479.311	395
2483.041	390
2486.768	402
2490.492	408
2494.213	394
2497.93	372
2501.644	375
2505.355	383
2509.062	383
2512.766	378
2516.467	377
2520.165	385
2523.859	365
2527.551	398
2531.239	366
2534.923	366
2538.605	365
2542.283	370
2545.958	373
2549.63	377
2553.299	370
2556.964	355
2560.626	366
2564.285	364
2567.941	345
2571.594	340
2575.243	357
2578.89	339
2582.533	345
2586.173	341
2589.809	337
2593.443	306
2597.073	335
2600.701	331
2604.325	332
2607.946	314
2611.564	328
2615.178	323
2618.79	321
2622.398	300
2626.004	317
2629.606	311
2633.205	302
2636.801	304
2640.394	306
2643.983	291
2647.57	289
2651.153	285
2654.734	297
2658.311	255
2661.885	271
2665.456	274
2669.025	274
2672.589	273
2676.151	291
2679.71	288
2683.266	268
2686.819	271
2690.368	265
2693.915	269
2697.458	263
2700.999	268
2704.536	274
2708.071	266
2711.602	268
2715.13	261
2718.656	243
2722.178	266
2725.697	262
2729.214	258
2732.727	272
2736.237	254
2739.744	267
2743.249	271
2746.75	273
2750.248	259
2753.743	266
2757.236	261
2760.725	271
2764.211	236
2767.695	266
2771.175	260
2774.652	251
2778.127	241
2781.598	240
2785.067	249
2788.532	239
2791.995	249
2795.455	230
2798.911	248
2802.365	248
2805.816	253
2809.264	258
2812.709	253
2816.151	269
2819.59	257
2823.026	268
2826.46	272
2829.89	284
2833.318	267
2836.742	294
2840.164	310
2843.583	317
2846.999	328
2850.412	329
2853.822	327
2857.229	354
2860.634	359
2864.035	350
2867.434	376
2870.83	413
2874.223	431
2877.613	470
2881	489
2884.385	525
2887.766	548
2891.145	556
2894.521	537
2897.894	513
2901.264	523
2904.631	519
2907.996	508
2911.358	521
2914.717	506
2918.073	503
2921.426	511
2924.777	518
2928.124	578
2931.469	627
2934.811	662
2938.15	739
2941.487	708
2944.821	690
2948.152	635
2951.48	597
2954.805	545
2958.128	523
2961.447	481
2964.765	489
2968.079	464
2971.39	463
2974.699	462
2978.005	467
2981.308	473
2984.609	468
2987.907	474
2991.202	468
2994.494	431
2997.784	410
3001.07	392
3004.355	368
3007.636	351
3010.915	345
3014.191	334
3017.464	318
3020.734	301
3024.002	305
3027.267	294
3030.53	298
3033.789	291
3037.046	287
3040.301	267
3043.552	282
3046.801	287
3050.048	292
3053.291	307
3056.532	290
3059.771	280
3063.006	300
3066.239	299
3069.469	306
3072.697	304
3075.922	296
3079.144	305
3082.364	336
3085.581	313
3088.795	340
3092.007	343
3095.216	350
3098.423	334
3101.627	324
3104.828	355
3108.026	350
3111.222	377
3114.416	377
3117.607	376
3120.795	384
3123.98	389
3127.163	388
3130.344	397
3133.521	397
3136.696	414
3139.869	416
3143.039	408
3146.206	447
3149.371	455
3152.533	439
3155.693	427
3158.85	445
3162.005	454
3165.157	445
3168.306	439
3171.453	448
3174.597	437
3177.739	435
3180.878	439
3184.014	453
3187.149	440
3190.28	446
3193.409	458
3196.536	456
3199.659	459
3202.781	457
3205.9	441
3209.016	450
3212.13	455
3215.241	459
3218.35	438
3221.456	442
3224.56	436
3227.661	444
3230.76	436
3233.856	420
3236.95	435
3240.041	420
3243.13	427
3246.216	425
3249.3	427
3252.382	423
3255.46	414
3258.537	371
3261.611	412
3264.682	418
3267.751	415
3270.818	410
3273.882	413
3276.943	404
3280.002	423
3283.059	382
3286.113	391
3289.165	386
3292.214	369
3295.261	393
3298.306	343
3301.348	364
3304.387	347
3307.425	360
3310.459	337
3313.492	347
3316.521	341
3319.549	340
3322.574	335
3325.597	326
3328.617	324
3331.635	330
3334.65	311
3337.663	323
3340.674	320
3343.682	313
3346.688	321
3349.691	314
3352.692	307
3355.691	320
3358.687	312
3361.681	313
3364.673	306
3367.662	307
3370.649	315
3373.633	288
3376.615	298
3379.595	274
3382.572	284
3385.547	274
3388.52	266
3391.49	269
3394.458	274
3397.424	276
3400.387	253
3403.348	265
3406.307	258
3409.263	257
3412.217	272
3415.168	258
3418.118	265
3421.065	247
3424.009	260
3426.951	244
3429.891	233
3432.829	237
3435.764	234
3438.697	225
3441.628	229
3444.557	211
3447.483	201
3450.407	212
3453.328	201
3456.247	196
3459.164	181
3462.079	193
3464.991	184
3467.902	179
3470.809	178
3473.715	177
3476.618	157
3479.519	162
3482.418	139
3485.315	147
3488.209	146
3491.101	148
3493.99	126
3496.878	131
3499.763	131
3502.646	137
3505.527	116
3508.405	115
3511.281	105
3514.155	109
3517.027	101
3519.897	95
3522.764	100
3525.629	81
3528.492	95
3531.352	88
3534.211	81
3537.067	75
3539.921	75
3542.773	82
3545.622	60
3548.469	55
3551.315	57
3554.157	50
3556.998	52
3559.837	50
3562.673	50
3565.507	43
3568.339	32
3571.169	40
3573.996	36
3576.822	22
3579.645	25
3582.466	28
3585.285	37
3588.101	30
3590.916	21
3593.728	30
3596.538	16
3599.346	20
3602.152	13
3604.956	16
3607.757	18
3610.556	0
3613.354	18
3616.149	16
3618.942	14
3621.732	15
3624.521	2
3627.307	1
3630.092	-4
3632.874	14
3635.654	-2
3638.432	-2
3641.208	-3
3643.982	-6
3646.753	5
3649.523	-24
3652.29	-5
3655.055	-7
3657.818	-2
3660.579	-10
3663.338	-17
3666.095	-9
3668.849	-40
3671.602	-8
3674.352	-24
3677.101	-4
3679.847	-7
3682.591	-22
3685.333	-25
3688.073	-15
3690.811	-25
3693.547	-28
3696.281	-35
3699.013	-12
3701.742	-24
3704.47	-31
3707.195	-17
3709.919	-18
3712.64	-24
3715.359	-32
3718.076	-11
3720.792	-20
3723.505	-22
3726.216	-11
3728.925	-24
3731.632	-34
3734.336	-21
3737.039	-26
3739.74	-24
3742.439	-53
3745.136	-19
3747.83	-19
3750.523	-20
3753.213	-89
3755.902	-27
3758.589	-40
3761.273	-26
3763.956	-19
3766.636	-39
3769.315	-13
3771.991	-24
3774.665	-33
3777.338	-21
3780.008	-37
3782.677	-28
3785.343	-42
3788.007	-47
3790.67	-19
3793.33	-37
3795.989	-29
3798.645	-26
3801.299	-39
3803.952	-36
3806.602	-30
3809.251	-23
3811.897	-27
3814.542	-30
3817.184	-31
3819.825	-25
3822.463	-43
3825.1	-36
3827.735	-26
3830.367	-39
3832.998	-18
3835.627	-27
3838.253	-20
3840.878	-31
3843.501	-17
3846.122	-26
3848.741	-19
3851.358	-23
3853.973	-37
3856.586	-22
3859.197	-37
3861.806	-28
3864.414	-39
3867.019	-26
3869.622	-26
3872.224	-28
3874.823	-20
3877.421	-8
3880.016	-3
3882.61	19
3885.202	28
3887.792	19
3890.38	0
3892.966	-21
3895.55	-38
3898.132	-22
3900.713	-20
3903.291	-29
3905.868	-37
3908.442	-30
3911.015	-30
3913.586	-34
3916.155	-29
3918.722	-40
3921.287	-34
3923.85	-37
3926.411	-36
3928.971	-44
3931.528	-27
3934.084	-34
3936.638	-38
3939.19	-27
3941.74	-30
3944.288	-32
3946.834	-34
3949.378	-23
3951.921	-39
3954.462	-31
3957	-32
3959.537	-21
3962.072	-36
3964.606	-47
3967.137	-28
3969.667	-38
3972.194	-23
3974.72	-32
3977.244	-54
3979.766	-36
3982.286	-35
3984.805	-25
3987.321	-20
3989.836	-26
3992.349	-32
3994.86	-29
3997.369	-30
3999.877	-34
4002.382	-30
4004.886	-26
4007.388	-24
4009.888	-21
4012.386	-26
4014.883	-28
4017.377	-26
4019.87	-27
4022.361	-34
4024.85	-24
4027.338	-27
4029.823	-33
4032.307	-33
4034.789	-24
4037.269	-30
4039.747	-42
4042.224	-20
4044.699	-33
4047.172	-32
4049.643	-21
4052.112	-55
4054.58	-30
4057.046	-41
4059.51	-35
4061.972	-27
4064.432	-44
4066.891	-20
4069.348	-28
4071.803	-28
4074.256	-30
4076.708	-27
4079.158	-25
4081.606	-14
4084.052	-32
4086.497	-22
4088.939	-31
4091.38	-28
4093.819	-26
4096.257	4
4098.693	-5
4101.127	-2
4103.559	1
4105.989	41
4108.418	47
4110.845	37
4113.27	49
4115.694	64
4118.115	51
4120.535	-34
4122.954	-23
4125.37	-16
4127.785	-26
4130.198	-26
4132.609	-25
4135.019	4
4137.427	-2
4139.833	4
4142.237	-4
