Data from 2018-3-6_conc=4_n=1_RamanShift_04.txt Node
Date: Tue Mar 06 13:50:49 GMT+02:00 2018
User: LAB3
Spectrometer: QEPB0276
Trigger mode: 0
Integration Time (sec): 3.000000E1
Scans to average: 1
Electric dark correction enabled: true
Nonlinearity correction enabled: false
Boxcar width: 0
XAxis mode: Raman Shifts
Number of Pixels in Spectrum: 1044
>>>>>Begin Spectral Data<<<<<
160.701	107
166.742	139
172.777	215
178.805	412
184.826	969
190.841	1937
196.849	3060
202.85	3903
208.845	4230
214.833	4215
220.815	4165
226.789	4184
232.758	4223
238.719	4224
244.674	4197
250.623	4192
256.565	4121
262.5	4100
268.429	4043
274.351	4052
280.267	4046
286.176	4041
292.079	4058
297.975	4062
303.865	4070
309.748	4080
315.625	4075
321.495	4057
327.359	4102
333.217	4109
339.068	4101
344.912	4110
350.751	4121
356.583	4152
362.408	4143
368.227	4179
374.04	4220
379.847	4222
385.647	4247
391.44	4243
397.228	4275
403.009	4288
408.784	4320
414.553	4363
420.315	4367
426.071	4351
431.821	4361
437.565	4339
443.302	4342
449.033	4307
454.758	4320
460.477	4255
466.189	4231
471.896	4196
477.596	4148
483.29	4147
488.978	4124
494.66	4099
500.335	4008
506.005	3837
511.668	3650
517.325	3494
522.977	3350
528.622	3264
534.261	3201
539.894	3124
545.521	3075
551.141	3039
556.756	3031
562.365	2980
567.968	2967
573.565	2926
579.155	2970
584.74	2898
590.319	2932
595.892	2912
601.459	2914
607.02	2902
612.575	2898
618.124	2840
623.667	2790
629.204	2771
634.735	2742
640.261	2687
645.781	2654
651.294	2676
656.802	2657
662.304	2660
667.8	2673
673.29	2655
678.775	2625
684.254	2621
689.726	2599
695.193	2603
700.655	2587
706.11	2587
711.56	2568
717.004	2529
722.442	2511
727.874	2519
733.301	2524
738.722	2492
744.137	2506
749.547	2485
754.951	2507
760.349	2487
765.741	2515
771.128	2524
776.509	2565
781.885	2594
787.254	2637
792.618	2603
797.977	2606
803.33	2590
808.677	2564
814.019	2548
819.355	2509
824.686	2498
830.011	2492
835.33	2494
840.644	2497
845.952	2440
851.255	2455
856.552	2421
861.844	2401
867.13	2377
872.41	2345
877.686	2327
882.955	2306
888.219	2279
893.478	2258
898.731	2232
903.979	2220
909.221	2186
914.458	2164
919.69	2176
924.916	2184
930.136	2179
935.351	2194
940.561	2192
945.766	2173
950.965	2157
956.158	2149
961.347	2115
966.529	2089
971.707	2098
976.879	2067
982.046	2023
987.208	2002
992.364	2025
997.515	2029
1002.66	2042
1007.801	2054
1012.936	2071
1018.066	2067
1023.19	2076
1028.309	2087
1033.423	2090
1038.532	2098
1043.636	2089
1048.734	2046
1053.827	2018
1058.915	2008
1063.998	1988
1069.075	1987
1074.147	2009
1079.214	1978
1084.276	2018
1089.333	1996
1094.385	2018
1099.431	2012
1104.472	2011
1109.509	1971
1114.54	1944
1119.565	1920
1124.586	1917
1129.602	1872
1134.613	1859
1139.618	1853
1144.619	1848
1149.614	1852
1154.604	1857
1159.589	1853
1164.57	1886
1169.545	1895
1174.515	1895
1179.48	1881
1184.44	1877
1189.395	1851
1194.345	1832
1199.29	1843
1204.23	1818
1209.165	1812
1214.095	1821
1219.021	1816
1223.941	1831
1228.856	1854
1233.766	1851
1238.672	1854
1243.572	1850
1248.467	1848
1253.358	1812
1258.244	1768
1263.124	1780
1268	1745
1272.871	1708
1277.737	1688
1282.599	1662
1287.455	1679
1292.306	1674
1297.153	1677
1301.995	1699
1306.832	1677
1311.664	1698
1316.491	1679
1321.314	1687
1326.132	1659
1330.945	1661
1335.753	1617
1340.556	1590
1345.354	1569
1350.148	1546
1354.937	1565
1359.722	1517
1364.501	1523
1369.276	1521
1374.046	1514
1378.811	1500
1383.572	1504
1388.327	1512
1393.079	1483
1397.825	1469
1402.567	1458
1407.304	1439
1412.036	1442
1416.764	1433
1421.487	1430
1426.205	1437
1430.919	1432
1435.628	1443
1440.333	1448
1445.032	1469
1449.727	1471
1454.418	1467
1459.104	1472
1463.785	1426
1468.462	1443
1473.134	1418
1477.802	1396
1482.465	1350
1487.123	1363
1491.777	1328
1496.426	1323
1501.071	1359
1505.711	1336
1510.347	1346
1514.978	1358
1519.604	1348
1524.226	1359
1528.844	1361
1533.457	1359
1538.065	1327
1542.669	1334
1547.269	1314
1551.864	1311
1556.454	1306
1561.041	1306
1565.622	1304
1570.199	1317
1574.772	1331
1579.34	1335
1583.904	1363
1588.464	1356
1593.019	1355
1597.569	1340
1602.115	1332
1606.657	1335
1611.195	1354
1615.728	1358
1620.256	1325
1624.78	1290
1629.3	1309
1633.816	1341
1638.327	1336
1642.834	1348
1647.336	1332
1651.834	1358
1656.328	1357
1660.817	1365
1665.302	1331
1669.783	1319
1674.259	1297
1678.732	1274
1683.199	1238
1687.663	1190
1692.122	1197
1696.577	1154
1701.028	1144
1705.474	1112
1709.917	1096
1714.355	1085
1718.788	1074
1723.218	1066
1727.643	1043
1732.064	1043
1736.481	1000
1740.893	1008
1745.301	983
1749.705	945
1754.105	936
1758.501	913
1762.893	918
1767.28	881
1771.663	878
1776.042	870
1780.417	865
1784.787	875
1789.154	876
1793.516	874
1797.874	872
1802.228	852
1806.578	842
1810.924	863
1815.266	741
1819.603	853
1823.937	830
1828.266	821
1832.591	818
1836.913	812
1841.23	799
1845.543	783
1849.852	807
1854.156	796
1858.457	783
1862.754	802
1867.047	795
1871.335	823
1875.62	805
1879.9	806
1884.177	793
1888.449	793
1892.718	783
1896.982	794
1901.243	768
1905.499	776
1909.752	756
1914	757
1918.245	767
1922.485	775
1926.722	761
1930.954	766
1935.183	781
1939.408	786
1943.628	770
1947.845	763
1952.058	758
1956.267	742
1960.472	739
1964.673	733
1968.87	721
1973.063	719
1977.252	696
1981.438	689
1985.619	684
1989.797	671
1993.971	677
1998.14	679
2002.306	674
2006.469	680
2010.627	656
2014.781	668
2018.932	670
2023.078	672
2027.221	665
2031.36	636
2035.495	626
2039.627	638
2043.754	625
2047.878	625
2051.998	609
2056.114	604
2060.226	615
2064.334	618
2068.439	633
2072.54	625
2076.637	615
2080.73	621
2084.82	624
2088.906	622
2092.988	608
2097.066	619
2101.14	627
2105.211	609
2109.278	593
2113.342	581
2117.401	570
2121.457	564
2125.509	574
2129.558	563
2133.602	561
2137.643	558
2141.681	559
2145.714	554
2149.744	558
2153.77	540
2157.793	533
2161.812	501
2165.827	516
2169.838	523
2173.846	502
2177.851	498
2181.851	507
2185.848	493
2189.841	488
2193.831	478
2197.817	479
2201.799	475
2205.778	462
2209.753	473
2213.725	453
2217.693	462
2221.657	444
2225.618	465
2229.575	448
2233.529	461
2237.479	461
2241.425	440
2245.368	424
2249.307	432
2253.243	431
2257.175	415
2261.104	407
2265.029	419
2268.95	403
2272.868	388
2276.783	386
2280.694	390
2284.601	385
2288.505	378
2292.405	370
2296.302	361
2300.195	360
2304.085	334
2307.971	358
2311.854	337
2315.734	344
2319.609	342
2323.482	313
2327.351	324
2331.216	334
2335.078	330
2338.937	316
2342.792	314
2346.643	321
2350.492	320
2354.336	313
2358.178	324
2362.015	320
2365.85	314
2369.681	321
2373.508	312
2377.333	330
2381.153	323
2384.971	319
2388.785	319
2392.595	296
2396.402	300
2400.206	286
2404.007	295
2407.804	303
2411.597	297
2415.388	300
2419.174	293
2422.958	288
2426.738	289
2430.515	299
2434.289	281
2438.059	276
2441.825	282
2445.589	291
2449.349	264
2453.106	277
2456.859	278
2460.61	285
2464.356	270
2468.1	258
2471.84	251
2475.577	251
2479.311	247
2483.041	251
2486.768	267
2490.492	262
2494.213	254
2497.93	241
2501.644	243
2505.355	243
2509.062	246
2512.766	246
2516.467	240
2520.165	247
2523.859	233
2527.551	262
2531.239	229
2534.923	241
2538.605	240
2542.283	247
2545.958	234
2549.63	252
2553.299	250
2556.964	223
2560.626	231
2564.285	242
2567.941	215
2571.594	215
2575.243	225
2578.89	220
2582.533	223
2586.173	216
2589.809	219
2593.443	190
2597.073	204
2600.701	218
2604.325	206
2607.946	196
2611.564	214
2615.178	210
2618.79	215
2622.398	197
2626.004	205
2629.606	205
2633.205	194
2636.801	204
2640.394	191
2643.983	189
2647.57	188
2651.153	177
2654.734	189
2658.311	168
2661.885	167
2665.456	163
2669.025	175
2672.589	170
2676.151	189
2679.71	190
2683.266	172
2686.819	158
2690.368	165
2693.915	164
2697.458	168
2700.999	169
2704.536	165
2708.071	153
2711.602	157
2715.13	154
2718.656	136
2722.178	155
2725.697	136
2729.214	152
2732.727	149
2736.237	131
2739.744	145
2743.249	141
2746.75	138
2750.248	133
2753.743	145
2757.236	149
2760.725	150
2764.211	124
2767.695	143
2771.175	147
2774.652	140
2778.127	129
2781.598	145
2785.067	137
2788.532	127
2791.995	137
2795.455	129
2798.911	150
2802.365	137
2805.816	141
2809.264	147
2812.709	135
2816.151	137
2819.59	130
2823.026	136
2826.46	133
2829.89	156
2833.318	116
2836.742	142
2840.164	139
2843.583	134
2846.999	135
2850.412	142
2853.822	133
2857.229	154
2860.634	143
2864.035	125
2867.434	148
2870.83	160
2874.223	141
2877.613	155
2881	149
2884.385	152
2887.766	152
2891.145	157
2894.521	155
2897.894	145
2901.264	159
2904.631	155
2907.996	160
2911.358	175
2914.717	162
2918.073	155
2921.426	153
2924.777	151
2928.124	155
2931.469	181
2934.811	163
2938.15	190
2941.487	174
2944.821	195
2948.152	179
2951.48	185
2954.805	170
2958.128	191
2961.447	172
2964.765	198
2968.079	182
2971.39	180
2974.699	188
2978.005	186
2981.308	186
2984.609	183
2987.907	196
2991.202	199
2994.494	184
2997.784	201
3001.07	208
3004.355	186
3007.636	203
3010.915	202
3014.191	209
3017.464	212
3020.734	206
3024.002	207
3027.267	213
3030.53	221
3033.789	218
3037.046	218
3040.301	214
3043.552	221
3046.801	229
3050.048	249
3053.291	256
3056.532	245
3059.771	242
3063.006	258
3066.239	265
3069.469	278
3072.697	278
3075.922	272
3079.144	288
3082.364	308
3085.581	299
3088.795	321
3092.007	312
3095.216	328
3098.423	317
3101.627	312
3104.828	338
3108.026	334
3111.222	360
3114.416	377
3117.607	364
3120.795	371
3123.98	379
3127.163	380
3130.344	400
3133.521	391
3136.696	426
3139.869	427
3143.039	410
3146.206	440
3149.371	443
3152.533	447
3155.693	439
3158.85	450
3162.005	463
3165.157	449
3168.306	449
3171.453	473
3174.597	458
3177.739	452
3180.878	462
3184.014	474
3187.149	464
3190.28	481
3193.409	480
3196.536	464
3199.659	482
3202.781	480
3205.9	461
3209.016	473
3212.13	475
3215.241	469
3218.35	471
3221.456	453
3224.56	444
3227.661	461
3230.76	456
3233.856	442
3236.95	443
3240.041	429
3243.13	441
3246.216	437
3249.3	443
3252.382	434
3255.46	424
3258.537	373
3261.611	418
3264.682	425
3267.751	427
3270.818	408
3273.882	422
3276.943	417
3280.002	429
3283.059	400
3286.113	410
3289.165	390
3292.214	394
3295.261	401
3298.306	376
3301.348	381
3304.387	372
3307.425	370
3310.459	367
3313.492	377
3316.521	365
3319.549	370
3322.574	370
3325.597	351
3328.617	357
3331.635	356
3334.65	332
3337.663	350
3340.674	334
3343.682	347
3346.688	346
3349.691	339
3352.692	338
3355.691	353
3358.687	333
3361.681	337
3364.673	330
3367.662	326
3370.649	332
3373.633	320
3376.615	321
3379.595	300
3382.572	305
3385.547	302
3388.52	293
3391.49	292
3394.458	293
3397.424	293
3400.387	285
3403.348	287
3406.307	286
3409.263	289
3412.217	283
3415.168	268
3418.118	286
3421.065	266
3424.009	274
3426.951	257
3429.891	257
3432.829	251
3435.764	256
3438.697	243
3441.628	242
3444.557	225
3447.483	220
3450.407	231
3453.328	211
3456.247	205
3459.164	199
3462.079	214
3464.991	198
3467.902	187
3470.809	181
3473.715	190
3476.618	175
3479.519	176
3482.418	149
3485.315	153
3488.209	150
3491.101	153
3493.99	127
3496.878	140
3499.763	139
3502.646	137
3505.527	125
3508.405	123
3511.281	106
3514.155	121
3517.027	110
3519.897	99
3522.764	103
3525.629	81
3528.492	93
3531.352	90
3534.211	87
3537.067	76
3539.921	78
3542.773	82
3545.622	59
3548.469	52
3551.315	50
3554.157	59
3556.998	44
3559.837	51
3562.673	53
3565.507	36
3568.339	42
3571.169	37
3573.996	40
3576.822	25
3579.645	27
3582.466	29
3585.285	36
3588.101	30
3590.916	29
3593.728	35
3596.538	23
3599.346	24
3602.152	8
3604.956	18
3607.757	19
3610.556	1
3613.354	18
3616.149	15
3618.942	13
3621.732	14
3624.521	9
3627.307	-5
3630.092	1
3632.874	15
3635.654	5
3638.432	-5
3641.208	-2
3643.982	4
3646.753	3
3649.523	-26
3652.29	-5
3655.055	-7
3657.818	-5
3660.579	-6
3663.338	-21
3666.095	-16
3668.849	-30
3671.602	-3
3674.352	-22
3677.101	-9
3679.847	-7
3682.591	-20
3685.333	-29
3688.073	-13
3690.811	-24
3693.547	-27
3696.281	-34
3699.013	-16
3701.742	-25
3704.47	-31
3707.195	-18
3709.919	-26
3712.64	-22
3715.359	-35
3718.076	-13
3720.792	-28
3723.505	-22
3726.216	-13
3728.925	-25
3731.632	-32
3734.336	-27
3737.039	-26
3739.74	-23
3742.439	-46
3745.136	-24
3747.83	-21
3750.523	-21
3753.213	-92
3755.902	-28
3758.589	-38
3761.273	-28
3763.956	-22
3766.636	-42
3769.315	-22
3771.991	-28
3774.665	-34
3777.338	-27
3780.008	-38
3782.677	-30
3785.343	-42
3788.007	-45
3790.67	-20
3793.33	-40
3795.989	-34
3798.645	-30
3801.299	-36
3803.952	-39
3806.602	-32
3809.251	-27
3811.897	-31
3814.542	-36
3817.184	-34
3819.825	-32
3822.463	-43
3825.1	-34
3827.735	-30
3830.367	-39
3832.998	-18
3835.627	-29
3838.253	-22
3840.878	-36
3843.501	-16
3846.122	-27
3848.741	-26
3851.358	-28
3853.973	-39
3856.586	-24
3859.197	-36
3861.806	-34
3864.414	-45
3867.019	-30
3869.622	-25
3872.224	-20
3874.823	-7
3877.421	18
3880.016	32
3882.61	67
3885.202	80
3887.792	61
3890.38	27
3892.966	-14
3895.55	-30
3898.132	-24
3900.713	-24
3903.291	-30
3905.868	-39
3908.442	-31
3911.015	-33
3913.586	-36
3916.155	-35
3918.722	-37
3921.287	-42
3923.85	-46
3926.411	-37
3928.971	-40
3931.528	-29
3934.084	-35
3936.638	-45
3939.19	-29
3941.74	-28
3944.288	-34
3946.834	-35
3949.378	-27
3951.921	-41
3954.462	-33
3957	-29
3959.537	-24
3962.072	-36
3964.606	-47
3967.137	-33
3969.667	-38
3972.194	-30
3974.72	-40
3977.244	-53
3979.766	-40
3982.286	-42
3984.805	-26
3987.321	-23
3989.836	-26
3992.349	-40
3994.86	-30
3997.369	-36
3999.877	-34
4002.382	-28
4004.886	-31
4007.388	-31
4009.888	-19
4012.386	-24
4014.883	-31
4017.377	-28
4019.87	-29
4022.361	-35
4024.85	-31
4027.338	-29
4029.823	-43
4032.307	-34
4034.789	-29
4037.269	-25
4039.747	-44
4042.224	-22
4044.699	-40
4047.172	-33
4049.643	-23
4052.112	-57
4054.58	-27
4057.046	-45
4059.51	-33
4061.972	-28
4064.432	-48
4066.891	-16
4069.348	-30
4071.803	-27
4074.256	-34
4076.708	-26
4079.158	-29
4081.606	-20
4084.052	-27
4086.497	-25
4088.939	-30
4091.38	-34
4093.819	-25
4096.257	2
4098.693	-6
4101.127	-4
4103.559	0
4105.989	101
4108.418	103
4110.845	90
4113.27	98
4115.694	97
4118.115	93
4120.535	-23
4122.954	-23
4125.37	-19
4127.785	-29
4130.198	-23
4132.609	-27
4135.019	10
4137.427	0
4139.833	4
4142.237	-6
