Data from 2018-3-6_conc=3_n=7_RamanShift_03.txt Node
Date: Tue Mar 06 13:34:19 GMT+02:00 2018
User: LAB3
Spectrometer: QEPB0276
Trigger mode: 0
Integration Time (sec): 3.000000E1
Scans to average: 1
Electric dark correction enabled: true
Nonlinearity correction enabled: false
Boxcar width: 0
XAxis mode: Raman Shifts
Number of Pixels in Spectrum: 1044
>>>>>Begin Spectral Data<<<<<
160.701	134
166.742	169
172.777	249
178.805	490
184.826	1086
190.841	2147
196.849	3420
202.85	4381
208.845	4723
214.833	4703
220.815	4656
226.789	4650
232.758	4719
238.719	4698
244.674	4682
250.623	4626
256.565	4599
262.5	4573
268.429	4554
274.351	4506
280.267	4507
286.176	4538
292.079	4537
297.975	4528
303.865	4532
309.748	4545
315.625	4537
321.495	4571
327.359	4557
333.217	4567
339.068	4595
344.912	4600
350.751	4622
356.583	4635
362.408	4641
368.227	4686
374.04	4675
379.847	4717
385.647	4774
391.44	4747
397.228	4782
403.009	4829
408.784	4853
414.553	4871
420.315	4882
426.071	4874
431.821	4873
437.565	4880
443.302	4856
449.033	4839
454.758	4803
460.477	4790
466.189	4742
471.896	4694
477.596	4665
483.29	4624
488.978	4633
494.66	4585
500.335	4472
506.005	4270
511.668	4101
517.325	3870
522.977	3726
528.622	3625
534.261	3543
539.894	3468
545.521	3419
551.141	3368
556.756	3324
562.365	3326
567.968	3270
573.565	3258
579.155	3258
584.74	3241
590.319	3236
595.892	3215
601.459	3237
607.02	3195
612.575	3176
618.124	3163
623.667	3082
629.204	3053
634.735	3013
640.261	2981
645.781	2942
651.294	2937
656.802	2934
662.304	2938
667.8	2934
673.29	2884
678.775	2909
684.254	2911
689.726	2852
695.193	2868
700.655	2850
706.11	2813
711.56	2825
717.004	2810
722.442	2757
727.874	2773
733.301	2783
738.722	2747
744.137	2749
749.547	2736
754.951	2731
760.349	2753
765.741	2774
771.128	2761
776.509	2824
781.885	2847
787.254	2905
792.618	2890
797.977	2901
803.33	2862
808.677	2820
814.019	2831
819.355	2771
824.686	2769
830.011	2743
835.33	2734
840.644	2729
845.952	2704
851.255	2704
856.552	2665
861.844	2642
867.13	2595
872.41	2569
877.686	2576
882.955	2544
888.219	2518
893.478	2471
898.731	2451
903.979	2429
909.221	2398
914.458	2388
919.69	2369
924.916	2392
930.136	2389
935.351	2390
940.561	2393
945.766	2394
950.965	2364
956.158	2347
961.347	2297
966.529	2288
971.707	2286
976.879	2244
982.046	2236
987.208	2203
992.364	2223
997.515	2224
1002.66	2220
1007.801	2241
1012.936	2270
1018.066	2258
1023.19	2282
1028.309	2286
1033.423	2295
1038.532	2294
1043.636	2269
1048.734	2251
1053.827	2226
1058.915	2202
1063.998	2205
1069.075	2179
1074.147	2192
1079.214	2161
1084.276	2200
1089.333	2211
1094.385	2198
1099.431	2190
1104.472	2199
1109.509	2174
1114.54	2138
1119.565	2112
1124.586	2062
1129.602	2055
1134.613	2023
1139.618	2031
1144.619	2043
1149.614	2030
1154.604	2021
1159.589	2041
1164.57	2050
1169.545	2071
1174.515	2044
1179.48	2049
1184.44	2043
1189.395	2024
1194.345	1993
1199.29	1996
1204.23	1982
1209.165	1972
1214.095	1995
1219.021	1990
1223.941	2003
1228.856	2007
1233.766	2026
1238.672	2021
1243.572	2020
1248.467	1997
1253.358	1961
1258.244	1939
1263.124	1931
1268	1908
1272.871	1827
1277.737	1844
1282.599	1815
1287.455	1822
1292.306	1834
1297.153	1816
1301.995	1849
1306.832	1835
1311.664	1861
1316.491	1853
1321.314	1842
1326.132	1812
1330.945	1784
1335.753	1784
1340.556	1729
1345.354	1691
1350.148	1699
1354.937	1683
1359.722	1672
1364.501	1656
1369.276	1644
1374.046	1638
1378.811	1613
1383.572	1625
1388.327	1631
1393.079	1603
1397.825	1616
1402.567	1584
1407.304	1569
1412.036	1580
1416.764	1565
1421.487	1547
1426.205	1540
1430.919	1557
1435.628	1569
1440.333	1570
1445.032	1581
1449.727	1602
1454.418	1608
1459.104	1598
1463.785	1570
1468.462	1570
1473.134	1520
1477.802	1498
1482.465	1467
1487.123	1455
1491.777	1447
1496.426	1426
1501.071	1470
1505.711	1448
1510.347	1477
1514.978	1480
1519.604	1470
1524.226	1478
1528.844	1457
1533.457	1471
1538.065	1453
1542.669	1446
1547.269	1420
1551.864	1410
1556.454	1427
1561.041	1410
1565.622	1409
1570.199	1415
1574.772	1448
1579.34	1459
1583.904	1459
1588.464	1475
1593.019	1482
1597.569	1455
1602.115	1459
1606.657	1471
1611.195	1462
1615.728	1454
1620.256	1445
1624.78	1415
1629.3	1421
1633.816	1465
1638.327	1449
1642.834	1480
1647.336	1471
1651.834	1490
1656.328	1477
1660.817	1456
1665.302	1447
1669.783	1433
1674.259	1392
1678.732	1373
1683.199	1353
1687.663	1304
1692.122	1279
1696.577	1253
1701.028	1240
1705.474	1210
1709.917	1183
1714.355	1164
1718.788	1174
1723.218	1131
1727.643	1130
1732.064	1132
1736.481	1087
1740.893	1101
1745.301	1058
1749.705	1010
1754.105	1009
1758.501	996
1762.893	978
1767.28	949
1771.663	949
1776.042	931
1780.417	935
1784.787	939
1789.154	932
1793.516	947
1797.874	933
1802.228	926
1806.578	907
1810.924	922
1815.266	801
1819.603	898
1823.937	892
1828.266	882
1832.591	885
1836.913	868
1841.23	860
1845.543	854
1849.852	862
1854.156	864
1858.457	851
1862.754	859
1867.047	856
1871.335	876
1875.62	870
1879.9	862
1884.177	834
1888.449	844
1892.718	849
1896.982	862
1901.243	831
1905.499	821
1909.752	823
1914	803
1918.245	825
1922.485	827
1926.722	833
1930.954	830
1935.183	830
1939.408	838
1943.628	835
1947.845	830
1952.058	803
1956.267	807
1960.472	814
1964.673	786
1968.87	776
1973.063	747
1977.252	754
1981.438	740
1985.619	739
1989.797	714
1993.971	726
1998.14	746
2002.306	721
2006.469	725
2010.627	716
2014.781	710
2018.932	692
2023.078	719
2027.221	704
2031.36	691
2035.495	670
2039.627	678
2043.754	678
2047.878	666
2051.998	671
2056.114	654
2060.226	662
2064.334	671
2068.439	682
2072.54	680
2076.637	662
2080.73	663
2084.82	665
2088.906	662
2092.988	653
2097.066	658
2101.14	658
2105.211	660
2109.278	644
2113.342	641
2117.401	618
2121.457	617
2125.509	614
2129.558	619
2133.602	611
2137.643	606
2141.681	604
2145.714	594
2149.744	601
2153.77	597
2157.793	572
2161.812	556
2165.827	558
2169.838	577
2173.846	548
2177.851	539
2181.851	554
2185.848	525
2189.841	537
2193.831	513
2197.817	521
2201.799	511
2205.778	511
2209.753	504
2213.725	497
2217.693	500
2221.657	499
2225.618	511
2229.575	490
2233.529	488
2237.479	494
2241.425	477
2245.368	469
2249.307	470
2253.243	443
2257.175	458
2261.104	455
2265.029	448
2268.95	427
2272.868	423
2276.783	416
2280.694	420
2284.601	415
2288.505	410
2292.405	416
2296.302	391
2300.195	393
2304.085	365
2307.971	393
2311.854	364
2315.734	371
2319.609	379
2323.482	349
2327.351	361
2331.216	349
2335.078	367
2338.937	353
2342.792	342
2346.643	340
2350.492	364
2354.336	351
2358.178	354
2362.015	350
2365.85	341
2369.681	342
2373.508	350
2377.333	358
2381.153	350
2384.971	340
2388.785	346
2392.595	340
2396.402	336
2400.206	311
2404.007	314
2407.804	327
2411.597	335
2415.388	323
2419.174	324
2422.958	327
2426.738	317
2430.515	322
2434.289	311
2438.059	312
2441.825	315
2445.589	317
2449.349	296
2453.106	302
2456.859	311
2460.61	309
2464.356	284
2468.1	283
2471.84	283
2475.577	280
2479.311	277
2483.041	287
2486.768	292
2490.492	294
2494.213	279
2497.93	270
2501.644	268
2505.355	277
2509.062	283
2512.766	269
2516.467	268
2520.165	268
2523.859	248
2527.551	286
2531.239	255
2534.923	268
2538.605	271
2542.283	270
2545.958	273
2549.63	268
2553.299	272
2556.964	251
2560.626	259
2564.285	259
2567.941	242
2571.594	238
2575.243	255
2578.89	239
2582.533	247
2586.173	237
2589.809	245
2593.443	219
2597.073	229
2600.701	244
2604.325	234
2607.946	220
2611.564	237
2615.178	232
2618.79	229
2622.398	219
2626.004	225
2629.606	218
2633.205	212
2636.801	212
2640.394	216
2643.983	203
2647.57	209
2651.153	199
2654.734	214
2658.311	184
2661.885	193
2665.456	194
2669.025	200
2672.589	196
2676.151	205
2679.71	206
2683.266	189
2686.819	177
2690.368	186
2693.915	193
2697.458	175
2700.999	189
2704.536	182
2708.071	184
2711.602	175
2715.13	168
2718.656	158
2722.178	171
2725.697	159
2729.214	164
2732.727	162
2736.237	149
2739.744	162
2743.249	149
2746.75	167
2750.248	159
2753.743	163
2757.236	155
2760.725	169
2764.211	137
2767.695	164
2771.175	153
2774.652	166
2778.127	150
2781.598	161
2785.067	155
2788.532	147
2791.995	153
2795.455	150
2798.911	159
2802.365	153
2805.816	157
2809.264	166
2812.709	156
2816.151	157
2819.59	149
2823.026	152
2826.46	149
2829.89	163
2833.318	140
2836.742	153
2840.164	151
2843.583	150
2846.999	153
2850.412	164
2853.822	145
2857.229	175
2860.634	165
2864.035	147
2867.434	173
2870.83	175
2874.223	173
2877.613	161
2881	160
2884.385	166
2887.766	168
2891.145	165
2894.521	175
2897.894	161
2901.264	182
2904.631	175
2907.996	180
2911.358	185
2914.717	177
2918.073	174
2921.426	184
2924.777	166
2928.124	176
2931.469	194
2934.811	181
2938.15	212
2941.487	198
2944.821	216
2948.152	202
2951.48	212
2954.805	196
2958.128	216
2961.447	202
2964.765	211
2968.079	201
2971.39	215
2974.699	207
2978.005	208
2981.308	210
2984.609	207
2987.907	218
2991.202	227
2994.494	205
2997.784	226
3001.07	223
3004.355	219
3007.636	229
3010.915	229
3014.191	224
3017.464	231
3020.734	242
3024.002	234
3027.267	234
3030.53	242
3033.789	236
3037.046	253
3040.301	245
3043.552	264
3046.801	257
3050.048	277
3053.291	293
3056.532	278
3059.771	268
3063.006	301
3066.239	298
3069.469	310
3072.697	310
3075.922	311
3079.144	321
3082.364	349
3085.581	332
3088.795	364
3092.007	362
3095.216	370
3098.423	376
3101.627	355
3104.828	387
3108.026	391
3111.222	409
3114.416	428
3117.607	422
3120.795	419
3123.98	435
3127.163	428
3130.344	453
3133.521	457
3136.696	485
3139.869	482
3143.039	466
3146.206	519
3149.371	503
3152.533	491
3155.693	504
3158.85	515
3162.005	513
3165.157	505
3168.306	501
3171.453	527
3174.597	514
3177.739	499
3180.878	524
3184.014	530
3187.149	524
3190.28	522
3193.409	542
3196.536	537
3199.659	536
3202.781	543
3205.9	514
3209.016	530
3212.13	531
3215.241	538
3218.35	533
3221.456	513
3224.56	502
3227.661	511
3230.76	501
3233.856	495
3236.95	510
3240.041	490
3243.13	500
3246.216	498
3249.3	493
3252.382	486
3255.46	477
3258.537	431
3261.611	476
3264.682	481
3267.751	477
3270.818	459
3273.882	478
3276.943	474
3280.002	479
3283.059	450
3286.113	465
3289.165	451
3292.214	429
3295.261	443
3298.306	426
3301.348	429
3304.387	414
3307.425	428
3310.459	420
3313.492	421
3316.521	409
3319.549	417
3322.574	395
3325.597	398
3328.617	392
3331.635	399
3334.65	386
3337.663	387
3340.674	395
3343.682	394
3346.688	392
3349.691	377
3352.692	379
3355.691	392
3358.687	385
3361.681	379
3364.673	371
3367.662	370
3370.649	383
3373.633	358
3376.615	367
3379.595	338
3382.572	346
3385.547	338
3388.52	325
3391.49	324
3394.458	333
3397.424	334
3400.387	313
3403.348	318
3406.307	320
3409.263	314
3412.217	320
3415.168	322
3418.118	324
3421.065	303
3424.009	312
3426.951	304
3429.891	292
3432.829	287
3435.764	290
3438.697	270
3441.628	290
3444.557	251
3447.483	261
3450.407	269
3453.328	241
3456.247	235
3459.164	222
3462.079	230
3464.991	224
3467.902	218
3470.809	207
3473.715	217
3476.618	197
3479.519	206
3482.418	171
3485.315	171
3488.209	178
3491.101	174
3493.99	159
3496.878	155
3499.763	151
3502.646	158
3505.527	147
3508.405	138
3511.281	129
3514.155	137
3517.027	123
3519.897	110
3522.764	120
3525.629	95
3528.492	105
3531.352	103
3534.211	102
3537.067	89
3539.921	91
3542.773	90
3545.622	72
3548.469	63
3551.315	66
3554.157	67
3556.998	56
3559.837	61
3562.673	64
3565.507	49
3568.339	47
3571.169	42
3573.996	52
3576.822	27
3579.645	36
3582.466	32
3585.285	47
3588.101	33
3590.916	30
3593.728	40
3596.538	27
3599.346	34
3602.152	22
3604.956	24
3607.757	25
3610.556	7
3613.354	21
3616.149	18
3618.942	20
3621.732	17
3624.521	12
3627.307	4
3630.092	0
3632.874	17
3635.654	8
3638.432	0
3641.208	0
3643.982	1
3646.753	11
3649.523	-26
3652.29	-6
3655.055	0
3657.818	-3
3660.579	-13
3663.338	-17
3666.095	-10
3668.849	-32
3671.602	-9
3674.352	-19
3677.101	-5
3679.847	-7
3682.591	-22
3685.333	-28
3688.073	-16
3690.811	-28
3693.547	-24
3696.281	-28
3699.013	-18
3701.742	-19
3704.47	-29
3707.195	-17
3709.919	-21
3712.64	-24
3715.359	-30
3718.076	-15
3720.792	-24
3723.505	-23
3726.216	-12
3728.925	-30
3731.632	-27
3734.336	-26
3737.039	-26
3739.74	-26
3742.439	-50
3745.136	-23
3747.83	-22
3750.523	-22
3753.213	-79
3755.902	-29
3758.589	-43
3761.273	-31
3763.956	-24
3766.636	-40
3769.315	-21
3771.991	-29
3774.665	-34
3777.338	-29
3780.008	-37
3782.677	-27
3785.343	-48
3788.007	-49
3790.67	-22
3793.33	-42
3795.989	-35
3798.645	-30
3801.299	-41
3803.952	-38
3806.602	-34
3809.251	-27
3811.897	-36
3814.542	-35
3817.184	-38
3819.825	-32
3822.463	-45
3825.1	-34
3827.735	-31
3830.367	-40
3832.998	-18
3835.627	-31
3838.253	-26
3840.878	-35
3843.501	-18
3846.122	-31
3848.741	-25
3851.358	-28
3853.973	-44
3856.586	-22
3859.197	-39
3861.806	-31
3864.414	-39
3867.019	-28
3869.622	-19
3872.224	-12
3874.823	1
3877.421	31
3880.016	52
3882.61	101
3885.202	109
3887.792	75
3890.38	31
3892.966	-6
3895.55	-28
3898.132	-21
3900.713	-19
3903.291	-27
3905.868	-32
3908.442	-28
3911.015	-29
3913.586	-34
3916.155	-30
3918.722	-42
3921.287	-40
3923.85	-45
3926.411	-38
3928.971	-33
3931.528	-30
3934.084	-37
3936.638	-43
3939.19	-31
3941.74	-29
3944.288	-34
3946.834	-32
3949.378	-22
3951.921	-39
3954.462	-33
3957	-25
3959.537	-22
3962.072	-29
3964.606	-43
3967.137	-32
3969.667	-33
3972.194	-29
3974.72	-35
3977.244	-57
3979.766	-36
3982.286	-39
3984.805	-30
3987.321	-23
3989.836	-27
3992.349	-39
3994.86	-34
3997.369	-38
3999.877	-32
4002.382	-36
4004.886	-23
4007.388	-31
4009.888	-18
4012.386	-25
4014.883	-27
4017.377	-26
4019.87	-27
4022.361	-35
4024.85	-28
4027.338	-26
4029.823	-37
4032.307	-30
4034.789	-32
4037.269	-27
4039.747	-40
4042.224	-19
4044.699	-35
4047.172	-32
4049.643	-21
4052.112	-49
4054.58	-26
4057.046	-38
4059.51	-31
4061.972	-29
4064.432	-49
4066.891	-20
4069.348	-26
4071.803	-25
4074.256	-33
4076.708	-21
4079.158	-23
4081.606	-22
4084.052	-29
4086.497	-24
4088.939	-30
4091.38	-31
4093.819	-24
4096.257	2
4098.693	-3
4101.127	-5
4103.559	2
4105.989	123
4108.418	130
4110.845	118
4113.27	127
4115.694	130
4118.115	121
4120.535	-28
4122.954	-22
4125.37	-15
4127.785	-27
4130.198	-22
4132.609	-26
4135.019	6
4137.427	0
4139.833	4
4142.237	-6
