Data from 2018-3-6_conc=5_n=2_RamanShift_05.txt Node
Date: Tue Mar 06 14:27:18 GMT+02:00 2018
User: LAB3
Spectrometer: QEPB0276
Trigger mode: 0
Integration Time (sec): 3.000000E1
Scans to average: 1
Electric dark correction enabled: true
Nonlinearity correction enabled: false
Boxcar width: 0
XAxis mode: Raman Shifts
Number of Pixels in Spectrum: 1044
>>>>>Begin Spectral Data<<<<<
160.701	53
166.742	75
172.777	111
178.805	231
184.826	528
190.841	1073
196.849	1686
202.85	2132
208.845	2282
214.833	2276
220.815	2220
226.789	2209
232.758	2225
238.719	2200
244.674	2175
250.623	2169
256.565	2121
262.5	2095
268.429	2061
274.351	2039
280.267	2024
286.176	2042
292.079	2050
297.975	2050
303.865	2046
309.748	2040
315.625	2017
321.495	2034
327.359	2035
333.217	2028
339.068	2048
344.912	2040
350.751	2041
356.583	2053
362.408	2052
368.227	2058
374.04	2063
379.847	2069
385.647	2098
391.44	2077
397.228	2096
403.009	2104
408.784	2117
414.553	2103
420.315	2125
426.071	2131
431.821	2116
437.565	2127
443.302	2133
449.033	2115
454.758	2089
460.477	2058
466.189	2053
471.896	2044
477.596	2020
483.29	2004
488.978	1968
494.66	1969
500.335	1926
506.005	1851
511.668	1753
517.325	1654
522.977	1580
528.622	1536
534.261	1509
539.894	1462
545.521	1441
551.141	1411
556.756	1412
562.365	1378
567.968	1378
573.565	1373
579.155	1373
584.74	1347
590.319	1345
595.892	1361
601.459	1354
607.02	1350
612.575	1345
618.124	1331
623.667	1290
629.204	1293
634.735	1267
640.261	1239
645.781	1222
651.294	1226
656.802	1231
662.304	1239
667.8	1226
673.29	1219
678.775	1214
684.254	1213
689.726	1184
695.193	1186
700.655	1202
706.11	1183
711.56	1178
717.004	1189
722.442	1148
727.874	1156
733.301	1162
738.722	1146
744.137	1163
749.547	1139
754.951	1157
760.349	1161
765.741	1151
771.128	1168
776.509	1173
781.885	1195
787.254	1213
792.618	1210
797.977	1217
803.33	1207
808.677	1186
814.019	1172
819.355	1169
824.686	1159
830.011	1161
835.33	1178
840.644	1147
845.952	1121
851.255	1140
856.552	1115
861.844	1094
867.13	1101
872.41	1070
877.686	1073
882.955	1072
888.219	1058
893.478	1023
898.731	1029
903.979	1004
909.221	989
914.458	977
919.69	991
924.916	996
930.136	1004
935.351	984
940.561	1006
945.766	1002
950.965	1008
956.158	978
961.347	964
966.529	958
971.707	970
976.879	952
982.046	937
987.208	924
992.364	917
997.515	932
1002.66	920
1007.801	924
1012.936	945
1018.066	946
1023.19	943
1028.309	954
1033.423	954
1038.532	952
1043.636	944
1048.734	953
1053.827	936
1058.915	907
1063.998	935
1069.075	893
1074.147	904
1079.214	897
1084.276	921
1089.333	925
1094.385	927
1099.431	904
1104.472	920
1109.509	909
1114.54	893
1119.565	879
1124.586	872
1129.602	850
1134.613	830
1139.618	835
1144.619	835
1149.614	840
1154.604	840
1159.589	849
1164.57	869
1169.545	862
1174.515	870
1179.48	850
1184.44	853
1189.395	858
1194.345	836
1199.29	835
1204.23	818
1209.165	809
1214.095	839
1219.021	827
1223.941	830
1228.856	839
1233.766	846
1238.672	837
1243.572	856
1248.467	827
1253.358	822
1258.244	809
1263.124	834
1268	789
1272.871	766
1277.737	766
1282.599	760
1287.455	760
1292.306	763
1297.153	761
1301.995	771
1306.832	763
1311.664	772
1316.491	765
1321.314	769
1326.132	760
1330.945	747
1335.753	735
1340.556	720
1345.354	705
1350.148	722
1354.937	698
1359.722	693
1364.501	677
1369.276	678
1374.046	691
1378.811	683
1383.572	682
1388.327	681
1393.079	668
1397.825	664
1402.567	673
1407.304	646
1412.036	653
1416.764	645
1421.487	639
1426.205	649
1430.919	647
1435.628	643
1440.333	643
1445.032	665
1449.727	659
1454.418	661
1459.104	657
1463.785	643
1468.462	660
1473.134	642
1477.802	631
1482.465	600
1487.123	611
1491.777	589
1496.426	587
1501.071	609
1505.711	597
1510.347	608
1514.978	624
1519.604	616
1524.226	613
1528.844	592
1533.457	618
1538.065	605
1542.669	613
1547.269	598
1551.864	603
1556.454	580
1561.041	577
1565.622	578
1570.199	593
1574.772	597
1579.34	609
1583.904	608
1588.464	621
1593.019	626
1597.569	612
1602.115	597
1606.657	593
1611.195	604
1615.728	607
1620.256	593
1624.78	569
1629.3	590
1633.816	591
1638.327	592
1642.834	599
1647.336	611
1651.834	622
1656.328	613
1660.817	597
1665.302	593
1669.783	583
1674.259	569
1678.732	572
1683.199	545
1687.663	522
1692.122	526
1696.577	526
1701.028	514
1705.474	492
1709.917	493
1714.355	488
1718.788	473
1723.218	467
1727.643	460
1732.064	459
1736.481	442
1740.893	447
1745.301	435
1749.705	405
1754.105	432
1758.501	410
1762.893	413
1767.28	381
1771.663	393
1776.042	382
1780.417	380
1784.787	392
1789.154	401
1793.516	392
1797.874	385
1802.228	383
1806.578	377
1810.924	382
1815.266	268
1819.603	381
1823.937	370
1828.266	365
1832.591	358
1836.913	358
1841.23	355
1845.543	351
1849.852	359
1854.156	351
1858.457	351
1862.754	344
1867.047	356
1871.335	361
1875.62	360
1879.9	358
1884.177	346
1888.449	349
1892.718	350
1896.982	356
1901.243	333
1905.499	332
1909.752	335
1914	313
1918.245	343
1922.485	345
1926.722	340
1930.954	325
1935.183	335
1939.408	346
1943.628	340
1947.845	340
1952.058	329
1956.267	318
1960.472	334
1964.673	321
1968.87	317
1973.063	305
1977.252	311
1981.438	296
1985.619	285
1989.797	281
1993.971	297
1998.14	314
2002.306	298
2006.469	298
2010.627	284
2014.781	286
2018.932	289
2023.078	302
2027.221	287
2031.36	278
2035.495	286
2039.627	277
2043.754	281
2047.878	255
2051.998	258
2056.114	268
2060.226	273
2064.334	264
2068.439	274
2072.54	275
2076.637	258
2080.73	259
2084.82	269
2088.906	264
2092.988	263
2097.066	262
2101.14	276
2105.211	261
2109.278	255
2113.342	253
2117.401	242
2121.457	238
2125.509	236
2129.558	240
2133.602	242
2137.643	244
2141.681	236
2145.714	236
2149.744	243
2153.77	242
2157.793	228
2161.812	200
2165.827	210
2169.838	235
2173.846	215
2177.851	213
2181.851	228
2185.848	209
2189.841	209
2193.831	214
2197.817	208
2201.799	205
2205.778	192
2209.753	192
2213.725	191
2217.693	196
2221.657	190
2225.618	200
2229.575	197
2233.529	192
2237.479	201
2241.425	186
2245.368	184
2249.307	183
2253.243	175
2257.175	183
2261.104	166
2265.029	173
2268.95	176
2272.868	171
2276.783	159
2280.694	166
2284.601	163
2288.505	160
2292.405	169
2296.302	141
2300.195	152
2304.085	128
2307.971	149
2311.854	135
2315.734	144
2319.609	145
2323.482	127
2327.351	132
2331.216	141
2335.078	138
2338.937	134
2342.792	128
2346.643	133
2350.492	137
2354.336	129
2358.178	134
2362.015	127
2365.85	123
2369.681	132
2373.508	132
2377.333	145
2381.153	134
2384.971	133
2388.785	128
2392.595	119
2396.402	118
2400.206	103
2404.007	117
2407.804	125
2411.597	117
2415.388	121
2419.174	114
2422.958	112
2426.738	114
2430.515	118
2434.289	106
2438.059	109
2441.825	111
2445.589	116
2449.349	100
2453.106	116
2456.859	106
2460.61	112
2464.356	99
2468.1	92
2471.84	93
2475.577	101
2479.311	94
2483.041	98
2486.768	116
2490.492	112
2494.213	105
2497.93	93
2501.644	89
2505.355	98
2509.062	99
2512.766	90
2516.467	87
2520.165	92
2523.859	82
2527.551	117
2531.239	87
2534.923	93
2538.605	85
2542.283	94
2545.958	94
2549.63	99
2553.299	96
2556.964	82
2560.626	86
2564.285	90
2567.941	73
2571.594	80
2575.243	91
2578.89	82
2582.533	82
2586.173	75
2589.809	79
2593.443	54
2597.073	77
2600.701	83
2604.325	78
2607.946	64
2611.564	84
2615.178	82
2618.79	76
2622.398	70
2626.004	75
2629.606	83
2633.205	74
2636.801	76
2640.394	74
2643.983	69
2647.57	70
2651.153	66
2654.734	72
2658.311	43
2661.885	63
2665.456	57
2669.025	64
2672.589	56
2676.151	69
2679.71	75
2683.266	59
2686.819	57
2690.368	63
2693.915	64
2697.458	54
2700.999	61
2704.536	64
2708.071	58
2711.602	64
2715.13	52
2718.656	34
2722.178	54
2725.697	40
2729.214	46
2732.727	53
2736.237	39
2739.744	45
2743.249	42
2746.75	52
2750.248	42
2753.743	49
2757.236	55
2760.725	55
2764.211	23
2767.695	53
2771.175	50
2774.652	51
2778.127	48
2781.598	44
2785.067	50
2788.532	30
2791.995	50
2795.455	36
2798.911	50
2802.365	38
2805.816	45
2809.264	49
2812.709	38
2816.151	52
2819.59	37
2823.026	42
2826.46	40
2829.89	56
2833.318	22
2836.742	37
2840.164	50
2843.583	45
2846.999	40
2850.412	47
2853.822	40
2857.229	51
2860.634	44
2864.035	31
2867.434	51
2870.83	49
2874.223	42
2877.613	49
2881	38
2884.385	43
2887.766	45
2891.145	48
2894.521	47
2897.894	36
2901.264	55
2904.631	49
2907.996	56
2911.358	58
2914.717	56
2918.073	49
2921.426	49
2924.777	33
2928.124	51
2931.469	59
2934.811	36
2938.15	70
2941.487	54
2944.821	76
2948.152	56
2951.48	71
2954.805	52
2958.128	74
2961.447	54
2964.765	74
2968.079	62
2971.39	56
2974.699	59
2978.005	67
2981.308	58
2984.609	53
2987.907	71
2991.202	72
2994.494	51
2997.784	61
3001.07	63
3004.355	65
3007.636	65
3010.915	67
3014.191	60
3017.464	68
3020.734	70
3024.002	70
3027.267	72
3030.53	76
3033.789	71
3037.046	76
3040.301	67
3043.552	75
3046.801	80
3050.048	87
3053.291	106
3056.532	83
3059.771	72
3063.006	93
3066.239	92
3069.469	105
3072.697	91
3075.922	91
3079.144	92
3082.364	122
3085.581	101
3088.795	126
3092.007	113
3095.216	129
3098.423	122
3101.627	91
3104.828	128
3108.026	121
3111.222	139
3114.416	139
3117.607	134
3120.795	138
3123.98	144
3127.163	134
3130.344	141
3133.521	141
3136.696	162
3139.869	160
3143.039	140
3146.206	176
3149.371	171
3152.533	167
3155.693	151
3158.85	169
3162.005	169
3165.157	175
3168.306	169
3171.453	180
3174.597	171
3177.739	158
3180.878	176
3184.014	181
3187.149	174
3190.28	179
3193.409	184
3196.536	185
3199.659	193
3202.781	189
3205.9	174
3209.016	186
3212.13	184
3215.241	186
3218.35	178
3221.456	169
3224.56	160
3227.661	168
3230.76	165
3233.856	158
3236.95	166
3240.041	151
3243.13	169
3246.216	161
3249.3	166
3252.382	161
3255.46	149
3258.537	106
3261.611	153
3264.682	152
3267.751	159
3270.818	145
3273.882	159
3276.943	155
3280.002	166
3283.059	154
3286.113	152
3289.165	145
3292.214	143
3295.261	144
3298.306	133
3301.348	143
3304.387	132
3307.425	135
3310.459	135
3313.492	134
3316.521	135
3319.549	139
3322.574	141
3325.597	130
3328.617	129
3331.635	136
3334.65	108
3337.663	126
3340.674	119
3343.682	133
3346.688	128
3349.691	116
3352.692	119
3355.691	132
3358.687	119
3361.681	126
3364.673	119
3367.662	125
3370.649	123
3373.633	105
3376.615	121
3379.595	101
3382.572	111
3385.547	91
3388.52	99
3391.49	99
3394.458	103
3397.424	108
3400.387	94
3403.348	102
3406.307	101
3409.263	102
3412.217	105
3415.168	100
3418.118	107
3421.065	87
3424.009	105
3426.951	87
3429.891	88
3432.829	89
3435.764	92
3438.697	72
3441.628	94
3444.557	74
3447.483	69
3450.407	82
3453.328	68
3456.247	69
3459.164	61
3462.079	76
3464.991	65
3467.902	55
3470.809	54
3473.715	67
3476.618	52
3479.519	54
3482.418	30
3485.315	41
3488.209	43
3491.101	42
3493.99	28
3496.878	30
3499.763	40
3502.646	34
3505.527	24
3508.405	29
3511.281	16
3514.155	25
3517.027	27
3519.897	12
3522.764	24
3525.629	0
3528.492	17
3531.352	21
3534.211	11
3537.067	11
3539.921	10
3542.773	22
3545.622	-4
3548.469	-4
3551.315	-4
3554.157	-2
3556.998	-11
3559.837	-1
3562.673	7
3565.507	-9
3568.339	-6
3571.169	-8
3573.996	-4
3576.822	-27
3579.645	-20
3582.466	-16
3585.285	-6
3588.101	-15
3590.916	-17
3593.728	-5
3596.538	-15
3599.346	-10
3602.152	-24
3604.956	-16
3607.757	-10
3610.556	-29
3613.354	-10
3616.149	-13
3618.942	-14
3621.732	-10
3624.521	-21
3627.307	-31
3630.092	-24
3632.874	-9
3635.654	-21
3638.432	-23
3641.208	-28
3643.982	-24
3646.753	-16
3649.523	-47
3652.29	-25
3655.055	-19
3657.818	-24
3660.579	-29
3663.338	-27
3666.095	-33
3668.849	-54
3671.602	-17
3674.352	-38
3677.101	-23
3679.847	-18
3682.591	-35
3685.333	-38
3688.073	-28
3690.811	-38
3693.547	-43
3696.281	-38
3699.013	-27
3701.742	-40
3704.47	-40
3707.195	-25
3709.919	-29
3712.64	-32
3715.359	-42
3718.076	-16
3720.792	-33
3723.505	-28
3726.216	-19
3728.925	-34
3731.632	-42
3734.336	-30
3737.039	-29
3739.74	-30
3742.439	-56
3745.136	-22
3747.83	-24
3750.523	-28
3753.213	-86
3755.902	-31
3758.589	-48
3761.273	-32
3763.956	-26
3766.636	-46
3769.315	-25
3771.991	-31
3774.665	-37
3777.338	-31
3780.008	-45
3782.677	-33
3785.343	-47
3788.007	-50
3790.67	-29
3793.33	-42
3795.989	-34
3798.645	-31
3801.299	-41
3803.952	-45
3806.602	-40
3809.251	-27
3811.897	-38
3814.542	-38
3817.184	-40
3819.825	-33
3822.463	-47
3825.1	-33
3827.735	-33
3830.367	-41
3832.998	-20
3835.627	-35
3838.253	-26
3840.878	-33
3843.501	-17
3846.122	-31
3848.741	-26
3851.358	-24
3853.973	-42
3856.586	-22
3859.197	-37
3861.806	-30
3864.414	-43
3867.019	-30
3869.622	-24
3872.224	-28
3874.823	-17
3877.421	-3
3880.016	4
3882.61	36
3885.202	46
3887.792	31
3890.38	9
3892.966	-21
3895.55	-35
3898.132	-28
3900.713	-25
3903.291	-28
3905.868	-42
3908.442	-32
3911.015	-35
3913.586	-36
3916.155	-30
3918.722	-42
3921.287	-35
3923.85	-48
3926.411	-44
3928.971	-39
3931.528	-30
3934.084	-36
3936.638	-44
3939.19	-32
3941.74	-29
3944.288	-39
3946.834	-39
3949.378	-21
3951.921	-37
3954.462	-30
3957	-32
3959.537	-25
3962.072	-35
3964.606	-48
3967.137	-38
3969.667	-36
3972.194	-29
3974.72	-41
3977.244	-59
3979.766	-43
3982.286	-40
3984.805	-29
3987.321	-26
3989.836	-28
3992.349	-37
3994.86	-27
3997.369	-37
3999.877	-35
4002.382	-37
4004.886	-28
4007.388	-32
4009.888	-20
4012.386	-28
4014.883	-30
4017.377	-31
4019.87	-30
4022.361	-38
4024.85	-35
4027.338	-35
4029.823	-37
4032.307	-35
4034.789	-29
4037.269	-36
4039.747	-45
4042.224	-23
4044.699	-38
4047.172	-36
4049.643	-26
4052.112	-57
4054.58	-32
4057.046	-40
4059.51	-33
4061.972	-33
4064.432	-51
4066.891	-20
4069.348	-34
4071.803	-30
4074.256	-37
4076.708	-30
4079.158	-30
4081.606	-23
4084.052	-37
4086.497	-28
4088.939	-31
4091.38	-36
4093.819	-25
4096.257	1
4098.693	-5
4101.127	-5
4103.559	-1
4105.989	51
4108.418	58
4110.845	41
4113.27	46
4115.694	59
4118.115	46
4120.535	-30
4122.954	-28
4125.37	-26
4127.785	-25
4130.198	-26
4132.609	-30
4135.019	10
4137.427	1
4139.833	4
4142.237	-5
