Data from 2018-3-6_conc=0_n=10_RamanShift_04.txt Node
Date: Tue Mar 06 12:39:19 GMT+02:00 2018
User: LAB3
Spectrometer: QEPB0276
Trigger mode: 0
Integration Time (sec): 3.000000E1
Scans to average: 1
Electric dark correction enabled: true
Nonlinearity correction enabled: false
Boxcar width: 0
XAxis mode: Raman Shifts
Number of Pixels in Spectrum: 1044
>>>>>Begin Spectral Data<<<<<
160.701	156
166.742	206
172.777	308
178.805	633
184.826	1473
190.841	2965
196.849	4755
202.85	6084
208.845	6591
214.833	6631
220.815	6541
226.789	6578
232.758	6670
238.719	6664
244.674	6683
250.623	6631
256.565	6593
262.5	6561
268.429	6523
274.351	6508
280.267	6538
286.176	6542
292.079	6582
297.975	6617
303.865	6609
309.748	6638
315.625	6631
321.495	6667
327.359	6661
333.217	6712
339.068	6729
344.912	6757
350.751	6816
356.583	6814
362.408	6855
368.227	6896
374.04	6947
379.847	6975
385.647	7025
391.44	7053
397.228	7087
403.009	7124
408.784	7134
414.553	7161
420.315	7202
426.071	7211
431.821	7245
437.565	7216
443.302	7210
449.033	7176
454.758	7114
460.477	7108
466.189	7004
471.896	6958
477.596	6872
483.29	6823
488.978	6839
494.66	6743
500.335	6611
506.005	6293
511.668	5962
517.325	5620
522.977	5423
528.622	5245
534.261	5116
539.894	4986
545.521	4904
551.141	4860
556.756	4803
562.365	4746
567.968	4738
573.565	4678
579.155	4644
584.74	4607
590.319	4631
595.892	4620
601.459	4605
607.02	4584
612.575	4574
618.124	4526
623.667	4440
629.204	4384
634.735	4312
640.261	4280
645.781	4206
651.294	4227
656.802	4215
662.304	4196
667.8	4184
673.29	4162
678.775	4118
684.254	4132
689.726	4094
695.193	4096
700.655	4056
706.11	4049
711.56	4025
717.004	4005
722.442	3972
727.874	3974
733.301	3980
738.722	3926
744.137	3945
749.547	3926
754.951	3928
760.349	3946
765.741	3968
771.128	4009
776.509	4070
781.885	4122
787.254	4166
792.618	4155
797.977	4179
803.33	4130
808.677	4103
814.019	4062
819.355	4020
824.686	4022
830.011	3967
835.33	3954
840.644	3933
845.952	3900
851.255	3895
856.552	3830
861.844	3800
867.13	3775
872.41	3774
877.686	3809
882.955	3813
888.219	3809
893.478	3648
898.731	3588
903.979	3513
909.221	3456
914.458	3446
919.69	3406
924.916	3442
930.136	3438
935.351	3431
940.561	3447
945.766	3412
950.965	3412
956.158	3384
961.347	3329
966.529	3304
971.707	3277
976.879	3213
982.046	3193
987.208	3175
992.364	3196
997.515	3178
1002.66	3227
1007.801	3259
1012.936	3296
1018.066	3273
1023.19	3326
1028.309	3321
1033.423	3329
1038.532	3339
1043.636	3309
1048.734	3325
1053.827	3299
1058.915	3263
1063.998	3236
1069.075	3200
1074.147	3219
1079.214	3186
1084.276	3232
1089.333	3240
1094.385	3273
1099.431	3236
1104.472	3213
1109.509	3133
1114.54	3110
1119.565	3051
1124.586	3030
1129.602	2982
1134.613	2927
1139.618	2937
1144.619	2954
1149.614	2946
1154.604	2932
1159.589	2951
1164.57	2972
1169.545	2977
1174.515	2964
1179.48	2942
1184.44	2942
1189.395	2943
1194.345	2883
1199.29	2901
1204.23	2848
1209.165	2852
1214.095	2899
1219.021	2894
1223.941	2895
1228.856	2921
1233.766	2918
1238.672	2937
1243.572	2921
1248.467	2877
1253.358	2838
1258.244	2794
1263.124	2765
1268	2735
1272.871	2701
1277.737	2674
1282.599	2659
1287.455	2652
1292.306	2666
1297.153	2665
1301.995	2674
1306.832	2695
1311.664	2694
1316.491	2702
1321.314	2674
1326.132	2655
1330.945	2633
1335.753	2593
1340.556	2550
1345.354	2505
1350.148	2483
1354.937	2445
1359.722	2422
1364.501	2402
1369.276	2419
1374.046	2409
1378.811	2397
1383.572	2416
1388.327	2401
1393.079	2355
1397.825	2347
1402.567	2315
1407.304	2296
1412.036	2286
1416.764	2299
1421.487	2297
1426.205	2294
1430.919	2293
1435.628	2332
1440.333	2340
1445.032	2358
1449.727	2402
1454.418	2429
1459.104	2447
1463.785	2404
1468.462	2361
1473.134	2302
1477.802	2261
1482.465	2223
1487.123	2223
1491.777	2187
1496.426	2198
1501.071	2210
1505.711	2186
1510.347	2211
1514.978	2227
1519.604	2244
1524.226	2229
1528.844	2213
1533.457	2203
1538.065	2178
1542.669	2147
1547.269	2124
1551.864	2110
1556.454	2084
1561.041	2100
1565.622	2093
1570.199	2072
1574.772	2104
1579.34	2121
1583.904	2126
1588.464	2189
1593.019	2167
1597.569	2149
1602.115	2150
1606.657	2139
1611.195	2153
1615.728	2130
1620.256	2114
1624.78	2095
1629.3	2113
1633.816	2127
1638.327	2138
1642.834	2164
1647.336	2184
1651.834	2191
1656.328	2201
1660.817	2208
1665.302	2177
1669.783	2159
1674.259	2143
1678.732	2073
1683.199	2061
1687.663	1997
1692.122	1961
1696.577	1923
1701.028	1911
1705.474	1851
1709.917	1819
1714.355	1812
1718.788	1792
1723.218	1757
1727.643	1733
1732.064	1711
1736.481	1682
1740.893	1679
1745.301	1649
1749.705	1575
1754.105	1570
1758.501	1521
1762.893	1529
1767.28	1460
1771.663	1476
1776.042	1448
1780.417	1450
1784.787	1462
1789.154	1477
1793.516	1473
1797.874	1481
1802.228	1462
1806.578	1453
1810.924	1445
1815.266	1354
1819.603	1400
1823.937	1363
1828.266	1362
1832.591	1349
1836.913	1330
1841.23	1323
1845.543	1318
1849.852	1334
1854.156	1319
1858.457	1336
1862.754	1308
1867.047	1321
1871.335	1333
1875.62	1347
1879.9	1357
1884.177	1334
1888.449	1343
1892.718	1328
1896.982	1340
1901.243	1308
1905.499	1319
1909.752	1307
1914	1290
1918.245	1335
1922.485	1327
1926.722	1332
1930.954	1323
1935.183	1338
1939.408	1338
1943.628	1343
1947.845	1330
1952.058	1318
1956.267	1284
1960.472	1290
1964.673	1252
1968.87	1227
1973.063	1195
1977.252	1170
1981.438	1164
1985.619	1147
1989.797	1115
1993.971	1129
1998.14	1138
2002.306	1113
2006.469	1121
2010.627	1110
2014.781	1113
2018.932	1090
2023.078	1121
2027.221	1086
2031.36	1061
2035.495	1058
2039.627	1076
2043.754	1050
2047.878	1040
2051.998	1043
2056.114	1036
2060.226	1033
2064.334	1040
2068.439	1059
2072.54	1071
2076.637	1060
2080.73	1059
2084.82	1054
2088.906	1052
2092.988	1056
2097.066	1050
2101.14	1047
2105.211	1040
2109.278	1020
2113.342	997
2117.401	980
2121.457	971
2125.509	955
2129.558	971
2133.602	969
2137.643	948
2141.681	940
2145.714	929
2149.744	935
2153.77	930
2157.793	888
2161.812	871
2165.827	856
2169.838	875
2173.846	849
2177.851	829
2181.851	839
2185.848	821
2189.841	808
2193.831	803
2197.817	799
2201.799	799
2205.778	764
2209.753	773
2213.725	768
2217.693	775
2221.657	773
2225.618	760
2229.575	755
2233.529	750
2237.479	747
2241.425	721
2245.368	720
2249.307	719
2253.243	696
2257.175	706
2261.104	680
2265.029	676
2268.95	676
2272.868	646
2276.783	640
2280.694	649
2284.601	640
2288.505	624
2292.405	626
2296.302	605
2300.195	606
2304.085	581
2307.971	599
2311.854	563
2315.734	567
2319.609	557
2323.482	531
2327.351	538
2331.216	539
2335.078	552
2338.937	541
2342.792	520
2346.643	527
2350.492	534
2354.336	518
2358.178	516
2362.015	530
2365.85	526
2369.681	523
2373.508	522
2377.333	536
2381.153	526
2384.971	513
2388.785	518
2392.595	503
2396.402	502
2400.206	481
2404.007	496
2407.804	504
2411.597	496
2415.388	493
2419.174	486
2422.958	495
2426.738	485
2430.515	488
2434.289	475
2438.059	476
2441.825	478
2445.589	479
2449.349	451
2453.106	466
2456.859	454
2460.61	468
2464.356	445
2468.1	442
2471.84	443
2475.577	441
2479.311	438
2483.041	444
2486.768	440
2490.492	445
2494.213	441
2497.93	418
2501.644	413
2505.355	433
2509.062	433
2512.766	426
2516.467	421
2520.165	427
2523.859	404
2527.551	433
2531.239	400
2534.923	423
2538.605	414
2542.283	420
2545.958	421
2549.63	423
2553.299	413
2556.964	403
2560.626	407
2564.285	405
2567.941	378
2571.594	387
2575.243	404
2578.89	382
2582.533	387
2586.173	383
2589.809	391
2593.443	356
2597.073	374
2600.701	381
2604.325	358
2607.946	360
2611.564	363
2615.178	362
2618.79	360
2622.398	339
2626.004	347
2629.606	344
2633.205	337
2636.801	338
2640.394	343
2643.983	327
2647.57	317
2651.153	315
2654.734	327
2658.311	300
2661.885	304
2665.456	295
2669.025	305
2672.589	293
2676.151	310
2679.71	310
2683.266	290
2686.819	290
2690.368	294
2693.915	295
2697.458	293
2700.999	293
2704.536	278
2708.071	277
2711.602	284
2715.13	279
2718.656	260
2722.178	271
2725.697	254
2729.214	268
2732.727	270
2736.237	256
2739.744	261
2743.249	260
2746.75	271
2750.248	267
2753.743	276
2757.236	274
2760.725	275
2764.211	247
2767.695	272
2771.175	262
2774.652	261
2778.127	258
2781.598	256
2785.067	263
2788.532	247
2791.995	263
2795.455	245
2798.911	259
2802.365	247
2805.816	257
2809.264	270
2812.709	261
2816.151	267
2819.59	247
2823.026	262
2826.46	261
2829.89	272
2833.318	247
2836.742	261
2840.164	264
2843.583	271
2846.999	280
2850.412	275
2853.822	274
2857.229	292
2860.634	285
2864.035	276
2867.434	303
2870.83	304
2874.223	309
2877.613	312
2881	316
2884.385	319
2887.766	329
2891.145	329
2894.521	323
2897.894	314
2901.264	336
2904.631	316
2907.996	328
2911.358	326
2914.717	335
2918.073	327
2921.426	327
2924.777	314
2928.124	345
2931.469	366
2934.811	362
2938.15	389
2941.487	378
2944.821	388
2948.152	378
2951.48	374
2954.805	349
2958.128	379
2961.447	353
2964.765	370
2968.079	353
2971.39	352
2974.699	356
2978.005	369
2981.308	363
2984.609	366
2987.907	383
2991.202	385
2994.494	366
2997.784	367
3001.07	383
3004.355	359
3007.636	374
3010.915	372
3014.191	370
3017.464	364
3020.734	367
3024.002	366
3027.267	363
3030.53	368
3033.789	371
3037.046	379
3040.301	376
3043.552	385
3046.801	395
3050.048	413
3053.291	431
3056.532	424
3059.771	419
3063.006	447
3066.239	452
3069.469	470
3072.697	477
3075.922	470
3079.144	495
3082.364	517
3085.581	507
3088.795	522
3092.007	536
3095.216	549
3098.423	558
3101.627	544
3104.828	564
3108.026	572
3111.222	596
3114.416	620
3117.607	620
3120.795	630
3123.98	656
3127.163	647
3130.344	672
3133.521	677
3136.696	693
3139.869	725
3143.039	711
3146.206	739
3149.371	751
3152.533	749
3155.693	731
3158.85	751
3162.005	758
3165.157	751
3168.306	765
3171.453	757
3174.597	763
3177.739	760
3180.878	766
3184.014	756
3187.149	766
3190.28	768
3193.409	779
3196.536	775
3199.659	770
3202.781	783
3205.9	766
3209.016	780
3212.13	771
3215.241	771
3218.35	783
3221.456	756
3224.56	748
3227.661	763
3230.76	762
3233.856	745
3236.95	752
3240.041	729
3243.13	728
3246.216	741
3249.3	733
3252.382	726
3255.46	724
3258.537	670
3261.611	714
3264.682	721
3267.751	706
3270.818	708
3273.882	713
3276.943	700
3280.002	717
3283.059	694
3286.113	677
3289.165	667
3292.214	641
3295.261	664
3298.306	639
3301.348	634
3304.387	618
3307.425	628
3310.459	607
3313.492	623
3316.521	599
3319.549	599
3322.574	583
3325.597	586
3328.617	579
3331.635	577
3334.65	565
3337.663	577
3340.674	562
3343.682	576
3346.688	574
3349.691	565
3352.692	565
3355.691	573
3358.687	561
3361.681	555
3364.673	543
3367.662	536
3370.649	554
3373.633	532
3376.615	533
3379.595	513
3382.572	520
3385.547	501
3388.52	499
3391.49	495
3394.458	493
3397.424	483
3400.387	468
3403.348	478
3406.307	482
3409.263	473
3412.217	472
3415.168	468
3418.118	477
3421.065	455
3424.009	450
3426.951	444
3429.891	431
3432.829	447
3435.764	423
3438.697	409
3441.628	420
3444.557	395
3447.483	375
3450.407	394
3453.328	377
3456.247	358
3459.164	340
3462.079	361
3464.991	346
3467.902	329
3470.809	313
3473.715	325
3476.618	299
3479.519	303
3482.418	276
3485.315	278
3488.209	271
3491.101	266
3493.99	252
3496.878	248
3499.763	246
3502.646	249
3505.527	228
3508.405	230
3511.281	211
3514.155	215
3517.027	205
3519.897	192
3522.764	201
3525.629	175
3528.492	183
3531.352	174
3534.211	177
3537.067	150
3539.921	157
3542.773	158
3545.622	128
3548.469	124
3551.315	119
3554.157	123
3556.998	108
3559.837	112
3562.673	114
3565.507	105
3568.339	90
3571.169	95
3573.996	91
3576.822	72
3579.645	82
3582.466	72
3585.285	89
3588.101	72
3590.916	68
3593.728	78
3596.538	60
3599.346	66
3602.152	51
3604.956	53
3607.757	55
3610.556	45
3613.354	53
3616.149	46
3618.942	48
3621.732	50
3624.521	36
3627.307	26
3630.092	27
3632.874	45
3635.654	31
3638.432	24
3641.208	21
3643.982	22
3646.753	24
3649.523	-9
3652.29	15
3655.055	21
3657.818	12
3660.579	14
3663.338	-1
3666.095	5
3668.849	-16
3671.602	13
3674.352	-9
3677.101	13
3679.847	12
3682.591	-7
3685.333	-6
3688.073	0
3690.811	-13
3693.547	-18
3696.281	-16
3699.013	0
3701.742	-12
3704.47	-13
3707.195	-5
3709.919	-7
3712.64	-9
3715.359	-25
3718.076	0
3720.792	-14
3723.505	-7
3726.216	0
3728.925	-12
3731.632	-16
3734.336	-17
3737.039	-13
3739.74	-6
3742.439	-41
3745.136	-10
3747.83	-11
3750.523	-17
3753.213	-83
3755.902	-19
3758.589	-31
3761.273	-19
3763.956	-10
3766.636	-26
3769.315	-13
3771.991	-19
3774.665	-27
3777.338	-19
3780.008	-32
3782.677	-18
3785.343	-34
3788.007	-39
3790.67	-15
3793.33	-30
3795.989	-25
3798.645	-13
3801.299	-32
3803.952	-34
3806.602	-25
3809.251	-16
3811.897	-22
3814.542	-26
3817.184	-30
3819.825	-25
3822.463	-39
3825.1	-25
3827.735	-25
3830.367	-35
3832.998	-10
3835.627	-29
3838.253	-18
3840.878	-27
3843.501	-8
3846.122	-20
3848.741	-19
3851.358	-14
3853.973	-37
3856.586	-15
3859.197	-30
3861.806	-21
3864.414	-33
3867.019	-20
3869.622	-18
3872.224	-12
3874.823	-1
3877.421	31
3880.016	50
3882.61	89
3885.202	104
3887.792	82
3890.38	39
3892.966	-3
3895.55	-25
3898.132	-13
3900.713	-15
3903.291	-18
3905.868	-31
3908.442	-23
3911.015	-27
3913.586	-31
3916.155	-27
3918.722	-34
3921.287	-31
3923.85	-43
3926.411	-33
3928.971	-36
3931.528	-29
3934.084	-34
3936.638	-40
3939.19	-28
3941.74	-34
3944.288	-34
3946.834	-32
3949.378	-18
3951.921	-32
3954.462	-28
3957	-26
3959.537	-16
3962.072	-27
3964.606	-44
3967.137	-31
3969.667	-34
3972.194	-23
3974.72	-29
3977.244	-46
3979.766	-32
3982.286	-37
3984.805	-18
3987.321	-14
3989.836	-18
3992.349	-31
3994.86	-22
3997.369	-31
3999.877	-28
4002.382	-29
4004.886	-22
4007.388	-23
4009.888	-12
4012.386	-19
4014.883	-24
4017.377	-26
4019.87	-26
4022.361	-34
4024.85	-27
4027.338	-26
4029.823	-29
4032.307	-26
4034.789	-28
4037.269	-28
4039.747	-36
4042.224	-18
4044.699	-36
4047.172	-29
4049.643	-18
4052.112	-44
4054.58	-22
4057.046	-41
4059.51	-24
4061.972	-28
4064.432	-40
4066.891	-15
4069.348	-20
4071.803	-22
4074.256	-28
4076.708	-21
4079.158	-20
4081.606	-14
4084.052	-26
4086.497	-23
4088.939	-26
4091.38	-30
4093.819	-23
4096.257	4
4098.693	-7
4101.127	-4
4103.559	3
4105.989	125
4108.418	133
4110.845	118
4113.27	128
4115.694	140
4118.115	132
4120.535	-22
4122.954	-20
4125.37	-15
4127.785	-22
4130.198	-17
4132.609	-19
4135.019	6
4137.427	0
4139.833	3
4142.237	-5
