Data from 2018-3-6_conc=4_n=6_RamanShift_03.txt Node
Date: Tue Mar 06 14:07:18 GMT+02:00 2018
User: LAB3
Spectrometer: QEPB0276
Trigger mode: 0
Integration Time (sec): 3.000000E1
Scans to average: 1
Electric dark correction enabled: true
Nonlinearity correction enabled: false
Boxcar width: 0
XAxis mode: Raman Shifts
Number of Pixels in Spectrum: 1044
>>>>>Begin Spectral Data<<<<<
160.701	77
166.742	108
172.777	154
178.805	286
184.826	690
190.841	1347
196.849	2142
202.85	2729
208.845	2901
214.833	2870
220.815	2807
226.789	2803
232.758	2801
238.719	2802
244.674	2763
250.623	2736
256.565	2677
262.5	2651
268.429	2640
274.351	2609
280.267	2589
286.176	2573
292.079	2589
297.975	2577
303.865	2553
309.748	2534
315.625	2554
321.495	2543
327.359	2560
333.217	2566
339.068	2554
344.912	2559
350.751	2558
356.583	2553
362.408	2588
368.227	2588
374.04	2595
379.847	2595
385.647	2643
391.44	2606
397.228	2640
403.009	2651
408.784	2631
414.553	2668
420.315	2667
426.071	2676
431.821	2661
437.565	2665
443.302	2645
449.033	2659
454.758	2619
460.477	2610
466.189	2593
471.896	2559
477.596	2541
483.29	2527
488.978	2505
494.66	2485
500.335	2427
506.005	2320
511.668	2243
517.325	2103
522.977	2035
528.622	1963
534.261	1928
539.894	1893
545.521	1872
551.141	1845
556.756	1831
562.365	1808
567.968	1812
573.565	1771
579.155	1783
584.74	1750
590.319	1778
595.892	1771
601.459	1758
607.02	1769
612.575	1763
618.124	1740
623.667	1698
629.204	1665
634.735	1651
640.261	1631
645.781	1604
651.294	1598
656.802	1618
662.304	1603
667.8	1603
673.29	1605
678.775	1576
684.254	1584
689.726	1573
695.193	1564
700.655	1549
706.11	1538
711.56	1524
717.004	1529
722.442	1527
727.874	1519
733.301	1528
738.722	1494
744.137	1519
749.547	1490
754.951	1485
760.349	1503
765.741	1512
771.128	1513
776.509	1536
781.885	1567
787.254	1577
792.618	1563
797.977	1582
803.33	1553
808.677	1550
814.019	1541
819.355	1505
824.686	1501
830.011	1496
835.33	1511
840.644	1494
845.952	1460
851.255	1486
856.552	1465
861.844	1446
867.13	1420
872.41	1408
877.686	1396
882.955	1407
888.219	1375
893.478	1351
898.731	1337
903.979	1333
909.221	1311
914.458	1309
919.69	1289
924.916	1300
930.136	1297
935.351	1290
940.561	1302
945.766	1312
950.965	1313
956.158	1280
961.347	1263
966.529	1252
971.707	1261
976.879	1249
982.046	1223
987.208	1208
992.364	1202
997.515	1217
1002.66	1231
1007.801	1230
1012.936	1244
1018.066	1222
1023.19	1239
1028.309	1244
1033.423	1255
1038.532	1262
1043.636	1223
1048.734	1234
1053.827	1231
1058.915	1196
1063.998	1201
1069.075	1190
1074.147	1211
1079.214	1178
1084.276	1208
1089.333	1201
1094.385	1213
1099.431	1188
1104.472	1195
1109.509	1167
1114.54	1174
1119.565	1147
1124.586	1127
1129.602	1129
1134.613	1096
1139.618	1104
1144.619	1100
1149.614	1107
1154.604	1099
1159.589	1095
1164.57	1126
1169.545	1135
1174.515	1123
1179.48	1098
1184.44	1109
1189.395	1112
1194.345	1077
1199.29	1080
1204.23	1087
1209.165	1074
1214.095	1093
1219.021	1082
1223.941	1081
1228.856	1092
1233.766	1107
1238.672	1101
1243.572	1105
1248.467	1091
1253.358	1069
1258.244	1060
1263.124	1065
1268	1033
1272.871	1016
1277.737	1010
1282.599	985
1287.455	1001
1292.306	1014
1297.153	977
1301.995	1000
1306.832	993
1311.664	1000
1316.491	1012
1321.314	994
1326.132	995
1330.945	997
1335.753	967
1340.556	944
1345.354	936
1350.148	917
1354.937	913
1359.722	887
1364.501	882
1369.276	897
1374.046	895
1378.811	881
1383.572	893
1388.327	879
1393.079	877
1397.825	877
1402.567	866
1407.304	855
1412.036	861
1416.764	861
1421.487	843
1426.205	841
1430.919	849
1435.628	855
1440.333	835
1445.032	866
1449.727	879
1454.418	868
1459.104	867
1463.785	835
1468.462	842
1473.134	825
1477.802	811
1482.465	774
1487.123	788
1491.777	761
1496.426	761
1501.071	789
1505.711	774
1510.347	793
1514.978	798
1519.604	795
1524.226	805
1528.844	780
1533.457	787
1538.065	781
1542.669	783
1547.269	766
1551.864	777
1556.454	757
1561.041	758
1565.622	782
1570.199	783
1574.772	774
1579.34	780
1583.904	806
1588.464	800
1593.019	807
1597.569	790
1602.115	797
1606.657	794
1611.195	790
1615.728	805
1620.256	769
1624.78	743
1629.3	765
1633.816	775
1638.327	763
1642.834	785
1647.336	791
1651.834	799
1656.328	781
1660.817	781
1665.302	776
1669.783	758
1674.259	743
1678.732	732
1683.199	722
1687.663	691
1692.122	688
1696.577	675
1701.028	667
1705.474	639
1709.917	629
1714.355	636
1718.788	614
1723.218	591
1727.643	589
1732.064	590
1736.481	570
1740.893	580
1745.301	568
1749.705	533
1754.105	542
1758.501	531
1762.893	531
1767.28	490
1771.663	508
1776.042	493
1780.417	486
1784.787	504
1789.154	495
1793.516	503
1797.874	496
1802.228	486
1806.578	476
1810.924	480
1815.266	361
1819.603	482
1823.937	473
1828.266	460
1832.591	474
1836.913	464
1841.23	454
1845.543	445
1849.852	466
1854.156	446
1858.457	458
1862.754	445
1867.047	453
1871.335	471
1875.62	465
1879.9	455
1884.177	445
1888.449	451
1892.718	446
1896.982	454
1901.243	429
1905.499	431
1909.752	418
1914	416
1918.245	439
1922.485	427
1926.722	422
1930.954	423
1935.183	427
1939.408	440
1943.628	418
1947.845	423
1952.058	428
1956.267	409
1960.472	423
1964.673	408
1968.87	404
1973.063	398
1977.252	398
1981.438	383
1985.619	373
1989.797	370
1993.971	378
1998.14	388
2002.306	384
2006.469	382
2010.627	372
2014.781	372
2018.932	349
2023.078	383
2027.221	372
2031.36	353
2035.495	357
2039.627	355
2043.754	350
2047.878	342
2051.998	343
2056.114	341
2060.226	351
2064.334	344
2068.439	352
2072.54	366
2076.637	340
2080.73	339
2084.82	347
2088.906	335
2092.988	338
2097.066	334
2101.14	344
2105.211	342
2109.278	332
2113.342	321
2117.401	318
2121.457	313
2125.509	314
2129.558	317
2133.602	314
2137.643	313
2141.681	305
2145.714	312
2149.744	308
2153.77	308
2157.793	295
2161.812	277
2165.827	278
2169.838	300
2173.846	280
2177.851	269
2181.851	287
2185.848	274
2189.841	275
2193.831	258
2197.817	263
2201.799	263
2205.778	256
2209.753	254
2213.725	251
2217.693	260
2221.657	253
2225.618	261
2229.575	250
2233.529	255
2237.479	259
2241.425	250
2245.368	235
2249.307	239
2253.243	237
2257.175	246
2261.104	220
2265.029	232
2268.95	227
2272.868	217
2276.783	213
2280.694	223
2284.601	215
2288.505	211
2292.405	218
2296.302	194
2300.195	214
2304.085	174
2307.971	205
2311.854	181
2315.734	191
2319.609	197
2323.482	166
2327.351	178
2331.216	185
2335.078	188
2338.937	185
2342.792	167
2346.643	177
2350.492	184
2354.336	177
2358.178	186
2362.015	176
2365.85	173
2369.681	179
2373.508	182
2377.333	186
2381.153	181
2384.971	179
2388.785	179
2392.595	166
2396.402	166
2400.206	137
2404.007	157
2407.804	166
2411.597	167
2415.388	157
2419.174	166
2422.958	173
2426.738	168
2430.515	168
2434.289	150
2438.059	152
2441.825	153
2445.589	166
2449.349	138
2453.106	156
2456.859	149
2460.61	148
2464.356	143
2468.1	141
2471.84	138
2475.577	135
2479.311	131
2483.041	136
2486.768	155
2490.492	149
2494.213	133
2497.93	129
2501.644	126
2505.355	135
2509.062	132
2512.766	136
2516.467	129
2520.165	130
2523.859	116
2527.551	145
2531.239	110
2534.923	121
2538.605	124
2542.283	121
2545.958	123
2549.63	130
2553.299	127
2556.964	108
2560.626	124
2564.285	121
2567.941	105
2571.594	105
2575.243	119
2578.89	115
2582.533	116
2586.173	108
2589.809	105
2593.443	89
2597.073	108
2600.701	112
2604.325	108
2607.946	92
2611.564	113
2615.178	114
2618.79	106
2622.398	96
2626.004	109
2629.606	108
2633.205	92
2636.801	104
2640.394	103
2643.983	92
2647.57	92
2651.153	87
2654.734	101
2658.311	70
2661.885	89
2665.456	85
2669.025	88
2672.589	82
2676.151	99
2679.71	96
2683.266	82
2686.819	86
2690.368	82
2693.915	93
2697.458	86
2700.999	84
2704.536	84
2708.071	80
2711.602	81
2715.13	81
2718.656	64
2722.178	75
2725.697	62
2729.214	73
2732.727	74
2736.237	53
2739.744	64
2743.249	61
2746.75	76
2750.248	62
2753.743	69
2757.236	68
2760.725	74
2764.211	40
2767.695	72
2771.175	62
2774.652	68
2778.127	64
2781.598	64
2785.067	73
2788.532	56
2791.995	71
2795.455	64
2798.911	75
2802.365	63
2805.816	70
2809.264	73
2812.709	58
2816.151	70
2819.59	56
2823.026	59
2826.46	59
2829.89	81
2833.318	37
2836.742	66
2840.164	69
2843.583	70
2846.999	63
2850.412	74
2853.822	61
2857.229	74
2860.634	71
2864.035	49
2867.434	76
2870.83	76
2874.223	65
2877.613	71
2881	66
2884.385	62
2887.766	66
2891.145	72
2894.521	67
2897.894	65
2901.264	82
2904.631	80
2907.996	82
2911.358	88
2914.717	81
2918.073	80
2921.426	68
2924.777	65
2928.124	72
2931.469	97
2934.811	77
2938.15	95
2941.487	86
2944.821	103
2948.152	95
2951.48	97
2954.805	76
2958.128	103
2961.447	82
2964.765	101
2968.079	89
2971.39	100
2974.699	93
2978.005	99
2981.308	91
2984.609	87
2987.907	102
2991.202	104
2994.494	89
2997.784	101
3001.07	102
3004.355	96
3007.636	99
3010.915	104
3014.191	101
3017.464	106
3020.734	106
3024.002	112
3027.267	105
3030.53	120
3033.789	116
3037.046	114
3040.301	99
3043.552	116
3046.801	122
3050.048	131
3053.291	140
3056.532	125
3059.771	119
3063.006	140
3066.239	133
3069.469	136
3072.697	143
3075.922	149
3079.144	137
3082.364	170
3085.581	154
3088.795	176
3092.007	170
3095.216	180
3098.423	168
3101.627	156
3104.828	183
3108.026	177
3111.222	199
3114.416	210
3117.607	198
3120.795	197
3123.98	199
3127.163	196
3130.344	212
3133.521	207
3136.696	230
3139.869	230
3143.039	206
3146.206	245
3149.371	245
3152.533	239
3155.693	227
3158.85	246
3162.005	244
3165.157	240
3168.306	249
3171.453	256
3174.597	247
3177.739	237
3180.878	256
3184.014	260
3187.149	256
3190.28	256
3193.409	259
3196.536	257
3199.659	264
3202.781	265
3205.9	252
3209.016	254
3212.13	256
3215.241	255
3218.35	256
3221.456	241
3224.56	245
3227.661	242
3230.76	241
3233.856	227
3236.95	241
3240.041	229
3243.13	239
3246.216	233
3249.3	232
3252.382	237
3255.46	221
3258.537	181
3261.611	225
3264.682	220
3267.751	219
3270.818	214
3273.882	229
3276.943	217
3280.002	241
3283.059	218
3286.113	217
3289.165	204
3292.214	200
3295.261	219
3298.306	199
3301.348	214
3304.387	189
3307.425	207
3310.459	200
3313.492	201
3316.521	199
3319.549	193
3322.574	198
3325.597	188
3328.617	189
3331.635	185
3334.65	170
3337.663	187
3340.674	186
3343.682	177
3346.688	187
3349.691	180
3352.692	185
3355.691	191
3358.687	178
3361.681	187
3364.673	168
3367.662	187
3370.649	181
3373.633	167
3376.615	178
3379.595	151
3382.572	161
3385.547	161
3388.52	151
3391.49	155
3394.458	149
3397.424	151
3400.387	146
3403.348	144
3406.307	149
3409.263	141
3412.217	153
3415.168	145
3418.118	155
3421.065	135
3424.009	152
3426.951	136
3429.891	132
3432.829	126
3435.764	133
3438.697	122
3441.628	134
3444.557	110
3447.483	110
3450.407	116
3453.328	111
3456.247	102
3459.164	101
3462.079	116
3464.991	106
3467.902	101
3470.809	94
3473.715	95
3476.618	82
3479.519	87
3482.418	55
3485.315	68
3488.209	70
3491.101	70
3493.99	57
3496.878	66
3499.763	65
3502.646	61
3505.527	51
3508.405	53
3511.281	40
3514.155	58
3517.027	47
3519.897	35
3522.764	49
3525.629	21
3528.492	35
3531.352	42
3534.211	33
3537.067	22
3539.921	29
3542.773	38
3545.622	15
3548.469	14
3551.315	8
3554.157	17
3556.998	3
3559.837	11
3562.673	17
3565.507	3
3568.339	-1
3571.169	5
3573.996	5
3576.822	-10
3579.645	-2
3582.466	-4
3585.285	1
3588.101	-3
3590.916	-3
3593.728	4
3596.538	-2
3599.346	-2
3602.152	-8
3604.956	-6
3607.757	-4
3610.556	-23
3613.354	3
3616.149	-8
3618.942	-4
3621.732	-4
3624.521	-14
3627.307	-21
3630.092	-15
3632.874	0
3635.654	-10
3638.432	-22
3641.208	-17
3643.982	-13
3646.753	-10
3649.523	-37
3652.29	-23
3655.055	-18
3657.818	-17
3660.579	-27
3663.338	-34
3666.095	-25
3668.849	-40
3671.602	-19
3674.352	-33
3677.101	-20
3679.847	-16
3682.591	-32
3685.333	-35
3688.073	-21
3690.811	-36
3693.547	-35
3696.281	-38
3699.013	-26
3701.742	-30
3704.47	-41
3707.195	-25
3709.919	-27
3712.64	-30
3715.359	-37
3718.076	-16
3720.792	-32
3723.505	-23
3726.216	-19
3728.925	-28
3731.632	-40
3734.336	-29
3737.039	-34
3739.74	-29
3742.439	-48
3745.136	-23
3747.83	-25
3750.523	-23
3753.213	-93
3755.902	-31
3758.589	-49
3761.273	-33
3763.956	-23
3766.636	-45
3769.315	-20
3771.991	-27
3774.665	-36
3777.338	-28
3780.008	-42
3782.677	-33
3785.343	-47
3788.007	-54
3790.67	-30
3793.33	-44
3795.989	-37
3798.645	-36
3801.299	-41
3803.952	-44
3806.602	-34
3809.251	-30
3811.897	-30
3814.542	-34
3817.184	-37
3819.825	-33
3822.463	-47
3825.1	-34
3827.735	-33
3830.367	-44
3832.998	-24
3835.627	-37
3838.253	-29
3840.878	-37
3843.501	-18
3846.122	-31
3848.741	-27
3851.358	-31
3853.973	-48
3856.586	-32
3859.197	-38
3861.806	-30
3864.414	-46
3867.019	-30
3869.622	-27
3872.224	-27
3874.823	-13
3877.421	3
3880.016	13
3882.61	46
3885.202	56
3887.792	36
3890.38	14
3892.966	-17
3895.55	-32
3898.132	-23
3900.713	-26
3903.291	-32
3905.868	-42
3908.442	-30
3911.015	-35
3913.586	-41
3916.155	-36
3918.722	-43
3921.287	-42
3923.85	-47
3926.411	-42
3928.971	-40
3931.528	-34
3934.084	-40
3936.638	-47
3939.19	-32
3941.74	-31
3944.288	-35
3946.834	-35
3949.378	-30
3951.921	-39
3954.462	-37
3957	-34
3959.537	-24
3962.072	-38
3964.606	-49
3967.137	-36
3969.667	-42
3972.194	-31
3974.72	-36
3977.244	-58
3979.766	-38
3982.286	-43
3984.805	-30
3987.321	-24
3989.836	-31
3992.349	-39
3994.86	-38
3997.369	-41
3999.877	-39
4002.382	-36
4004.886	-25
4007.388	-34
4009.888	-24
4012.386	-24
4014.883	-30
4017.377	-32
4019.87	-30
4022.361	-42
4024.85	-31
4027.338	-31
4029.823	-44
4032.307	-33
4034.789	-30
4037.269	-31
4039.747	-48
4042.224	-25
4044.699	-42
4047.172	-34
4049.643	-26
4052.112	-55
4054.58	-29
4057.046	-44
4059.51	-34
4061.972	-35
4064.432	-48
4066.891	-24
4069.348	-32
4071.803	-31
4074.256	-41
4076.708	-27
4079.158	-33
4081.606	-23
4084.052	-33
4086.497	-26
4088.939	-29
4091.38	-34
4093.819	-29
4096.257	2
4098.693	-5
4101.127	-4
4103.559	3
4105.989	72
4108.418	80
4110.845	65
4113.27	69
4115.694	75
4118.115	72
4120.535	-30
4122.954	-27
4125.37	-20
4127.785	-28
4130.198	-20
4132.609	-30
4135.019	6
4137.427	0
4139.833	6
4142.237	-8
