Data from 2018-3-6_conc=5_n=6_RamanShift_03.txt Node
Date: Tue Mar 06 14:39:18 GMT+02:00 2018
User: LAB3
Spectrometer: QEPB0276
Trigger mode: 0
Integration Time (sec): 3.000000E1
Scans to average: 1
Electric dark correction enabled: true
Nonlinearity correction enabled: false
Boxcar width: 0
XAxis mode: Raman Shifts
Number of Pixels in Spectrum: 1044
>>>>>Begin Spectral Data<<<<<
160.701	50
166.742	66
172.777	96
178.805	193
184.826	461
190.841	925
196.849	1458
202.85	1844
208.845	1957
214.833	1957
220.815	1883
226.789	1861
232.758	1878
238.719	1844
244.674	1808
250.623	1798
256.565	1776
262.5	1732
268.429	1723
274.351	1681
280.267	1680
286.176	1678
292.079	1669
297.975	1673
303.865	1638
309.748	1648
315.625	1633
321.495	1650
327.359	1644
333.217	1635
339.068	1620
344.912	1642
350.751	1636
356.583	1634
362.408	1633
368.227	1643
374.04	1648
379.847	1647
385.647	1659
391.44	1650
397.228	1686
403.009	1676
408.784	1680
414.553	1683
420.315	1689
426.071	1684
431.821	1710
437.565	1697
443.302	1679
449.033	1664
454.758	1662
460.477	1672
466.189	1637
471.896	1624
477.596	1604
483.29	1589
488.978	1580
494.66	1548
500.335	1537
506.005	1472
511.668	1423
517.325	1317
522.977	1278
528.622	1235
534.261	1207
539.894	1173
545.521	1165
551.141	1139
556.756	1134
562.365	1132
567.968	1121
573.565	1105
579.155	1103
584.74	1082
590.319	1100
595.892	1095
601.459	1112
607.02	1095
612.575	1088
618.124	1075
623.667	1055
629.204	1043
634.735	1025
640.261	1000
645.781	986
651.294	1004
656.802	1003
662.304	1002
667.8	995
673.29	992
678.775	989
684.254	986
689.726	966
695.193	975
700.655	960
706.11	945
711.56	953
717.004	942
722.442	925
727.874	940
733.301	947
738.722	907
744.137	938
749.547	922
754.951	922
760.349	933
765.741	935
771.128	941
776.509	942
781.885	976
787.254	971
792.618	971
797.977	969
803.33	978
808.677	962
814.019	951
819.355	935
824.686	930
830.011	922
835.33	938
840.644	940
845.952	900
851.255	924
856.552	899
861.844	896
867.13	872
872.41	885
877.686	874
882.955	868
888.219	844
893.478	838
898.731	840
903.979	834
909.221	817
914.458	793
919.69	805
924.916	818
930.136	812
935.351	806
940.561	813
945.766	807
950.965	806
956.158	797
961.347	779
966.529	770
971.707	780
976.879	780
982.046	760
987.208	740
992.364	756
997.515	752
1002.66	753
1007.801	749
1012.936	758
1018.066	743
1023.19	769
1028.309	775
1033.423	776
1038.532	783
1043.636	759
1048.734	770
1053.827	745
1058.915	742
1063.998	745
1069.075	730
1074.147	746
1079.214	717
1084.276	750
1089.333	745
1094.385	747
1099.431	744
1104.472	732
1109.509	719
1114.54	708
1119.565	707
1124.586	711
1129.602	686
1134.613	671
1139.618	672
1144.619	672
1149.614	685
1154.604	677
1159.589	677
1164.57	694
1169.545	701
1174.515	702
1179.48	681
1184.44	686
1189.395	688
1194.345	671
1199.29	673
1204.23	649
1209.165	654
1214.095	666
1219.021	671
1223.941	656
1228.856	661
1233.766	663
1238.672	685
1243.572	686
1248.467	671
1253.358	661
1258.244	641
1263.124	655
1268	645
1272.871	607
1277.737	615
1282.599	595
1287.455	606
1292.306	611
1297.153	602
1301.995	616
1306.832	607
1311.664	613
1316.491	609
1321.314	630
1326.132	604
1330.945	607
1335.753	590
1340.556	575
1345.354	559
1350.148	567
1354.937	559
1359.722	541
1364.501	542
1369.276	549
1374.046	554
1378.811	538
1383.572	560
1388.327	553
1393.079	526
1397.825	528
1402.567	523
1407.304	527
1412.036	523
1416.764	511
1421.487	512
1426.205	502
1430.919	518
1435.628	519
1440.333	509
1445.032	520
1449.727	525
1454.418	546
1459.104	528
1463.785	506
1468.462	520
1473.134	504
1477.802	501
1482.465	478
1487.123	488
1491.777	463
1496.426	467
1501.071	498
1505.711	471
1510.347	481
1514.978	486
1519.604	490
1524.226	495
1528.844	473
1533.457	484
1538.065	486
1542.669	468
1547.269	473
1551.864	467
1556.454	457
1561.041	467
1565.622	464
1570.199	474
1574.772	477
1579.34	470
1583.904	486
1588.464	491
1593.019	489
1597.569	488
1602.115	475
1606.657	483
1611.195	484
1615.728	486
1620.256	466
1624.78	449
1629.3	466
1633.816	468
1638.327	481
1642.834	475
1647.336	467
1651.834	480
1656.328	472
1660.817	465
1665.302	470
1669.783	454
1674.259	454
1678.732	449
1683.199	438
1687.663	412
1692.122	419
1696.577	405
1701.028	405
1705.474	389
1709.917	380
1714.355	379
1718.788	377
1723.218	357
1727.643	354
1732.064	357
1736.481	343
1740.893	351
1745.301	332
1749.705	312
1754.105	332
1758.501	317
1762.893	335
1767.28	293
1771.663	313
1776.042	299
1780.417	292
1784.787	291
1789.154	306
1793.516	302
1797.874	297
1802.228	281
1806.578	280
1810.924	291
1815.266	182
1819.603	295
1823.937	278
1828.266	280
1832.591	288
1836.913	276
1841.23	277
1845.543	268
1849.852	278
1854.156	270
1858.457	276
1862.754	269
1867.047	281
1871.335	286
1875.62	283
1879.9	282
1884.177	263
1888.449	275
1892.718	276
1896.982	266
1901.243	251
1905.499	256
1909.752	248
1914	236
1918.245	266
1922.485	264
1926.722	257
1930.954	247
1935.183	259
1939.408	257
1943.628	267
1947.845	263
1952.058	253
1956.267	247
1960.472	256
1964.673	249
1968.87	237
1973.063	240
1977.252	233
1981.438	229
1985.619	227
1989.797	209
1993.971	228
1998.14	229
2002.306	223
2006.469	230
2010.627	222
2014.781	226
2018.932	219
2023.078	240
2027.221	219
2031.36	210
2035.495	207
2039.627	211
2043.754	214
2047.878	201
2051.998	206
2056.114	203
2060.226	211
2064.334	213
2068.439	213
2072.54	212
2076.637	199
2080.73	210
2084.82	206
2088.906	201
2092.988	198
2097.066	201
2101.14	213
2105.211	203
2109.278	199
2113.342	198
2117.401	186
2121.457	179
2125.509	182
2129.558	194
2133.602	188
2137.643	186
2141.681	184
2145.714	185
2149.744	188
2153.77	183
2157.793	169
2161.812	144
2165.827	157
2169.838	180
2173.846	170
2177.851	163
2181.851	172
2185.848	161
2189.841	165
2193.831	153
2197.817	157
2201.799	159
2205.778	150
2209.753	150
2213.725	146
2217.693	158
2221.657	146
2225.618	152
2229.575	149
2233.529	151
2237.479	149
2241.425	141
2245.368	134
2249.307	142
2253.243	134
2257.175	139
2261.104	128
2265.029	135
2268.95	129
2272.868	130
2276.783	122
2280.694	131
2284.601	127
2288.505	129
2292.405	130
2296.302	108
2300.195	116
2304.085	85
2307.971	120
2311.854	97
2315.734	107
2319.609	109
2323.482	87
2327.351	98
2331.216	97
2335.078	108
2338.937	105
2342.792	98
2346.643	92
2350.492	103
2354.336	96
2358.178	101
2362.015	105
2365.85	100
2369.681	102
2373.508	101
2377.333	110
2381.153	97
2384.971	97
2388.785	102
2392.595	81
2396.402	88
2400.206	67
2404.007	84
2407.804	92
2411.597	93
2415.388	84
2419.174	82
2422.958	90
2426.738	85
2430.515	96
2434.289	81
2438.059	79
2441.825	83
2445.589	91
2449.349	74
2453.106	85
2456.859	83
2460.61	87
2464.356	74
2468.1	70
2471.84	68
2475.577	75
2479.311	70
2483.041	75
2486.768	90
2490.492	87
2494.213	74
2497.93	66
2501.644	57
2505.355	72
2509.062	73
2512.766	70
2516.467	60
2520.165	68
2523.859	60
2527.551	88
2531.239	61
2534.923	71
2538.605	65
2542.283	69
2545.958	67
2549.63	78
2553.299	77
2556.964	55
2560.626	61
2564.285	65
2567.941	54
2571.594	49
2575.243	65
2578.89	56
2582.533	61
2586.173	55
2589.809	60
2593.443	37
2597.073	52
2600.701	62
2604.325	57
2607.946	45
2611.564	62
2615.178	54
2618.79	57
2622.398	49
2626.004	55
2629.606	57
2633.205	43
2636.801	52
2640.394	54
2643.983	47
2647.57	46
2651.153	37
2654.734	50
2658.311	26
2661.885	37
2665.456	36
2669.025	44
2672.589	36
2676.151	53
2679.71	52
2683.266	42
2686.819	37
2690.368	43
2693.915	45
2697.458	41
2700.999	45
2704.536	39
2708.071	39
2711.602	37
2715.13	41
2718.656	18
2722.178	35
2725.697	20
2729.214	30
2732.727	38
2736.237	17
2739.744	22
2743.249	19
2746.75	31
2750.248	24
2753.743	30
2757.236	30
2760.725	38
2764.211	0
2767.695	32
2771.175	28
2774.652	29
2778.127	25
2781.598	24
2785.067	28
2788.532	15
2791.995	29
2795.455	16
2798.911	28
2802.365	23
2805.816	25
2809.264	35
2812.709	23
2816.151	27
2819.59	18
2823.026	23
2826.46	28
2829.89	36
2833.318	4
2836.742	27
2840.164	31
2843.583	30
2846.999	25
2850.412	32
2853.822	25
2857.229	39
2860.634	35
2864.035	12
2867.434	39
2870.83	31
2874.223	26
2877.613	30
2881	23
2884.385	24
2887.766	26
2891.145	25
2894.521	28
2897.894	20
2901.264	41
2904.631	34
2907.996	38
2911.358	42
2914.717	35
2918.073	31
2921.426	27
2924.777	23
2928.124	25
2931.469	47
2934.811	31
2938.15	48
2941.487	41
2944.821	55
2948.152	43
2951.48	45
2954.805	27
2958.128	48
2961.447	42
2964.765	52
2968.079	42
2971.39	47
2974.699	43
2978.005	48
2981.308	47
2984.609	35
2987.907	49
2991.202	55
2994.494	33
2997.784	49
3001.07	50
3004.355	39
3007.636	47
3010.915	53
3014.191	47
3017.464	50
3020.734	54
3024.002	54
3027.267	50
3030.53	52
3033.789	52
3037.046	54
3040.301	49
3043.552	55
3046.801	57
3050.048	73
3053.291	84
3056.532	66
3059.771	48
3063.006	76
3066.239	67
3069.469	79
3072.697	73
3075.922	62
3079.144	71
3082.364	93
3085.581	74
3088.795	104
3092.007	95
3095.216	94
3098.423	86
3101.627	69
3104.828	94
3108.026	89
3111.222	111
3114.416	112
3117.607	104
3120.795	104
3123.98	115
3127.163	100
3130.344	104
3133.521	106
3136.696	133
3139.869	123
3143.039	113
3146.206	139
3149.371	137
3152.533	131
3155.693	119
3158.85	135
3162.005	135
3165.157	128
3168.306	131
3171.453	146
3174.597	129
3177.739	132
3180.878	138
3184.014	142
3187.149	141
3190.28	140
3193.409	144
3196.536	153
3199.659	151
3202.781	147
3205.9	132
3209.016	146
3212.13	135
3215.241	136
3218.35	135
3221.456	135
3224.56	125
3227.661	137
3230.76	129
3233.856	124
3236.95	135
3240.041	117
3243.13	142
3246.216	128
3249.3	128
3252.382	128
3255.46	124
3258.537	74
3261.611	115
3264.682	126
3267.751	129
3270.818	113
3273.882	127
3276.943	108
3280.002	133
3283.059	116
3286.113	113
3289.165	108
3292.214	108
3295.261	118
3298.306	95
3301.348	111
3304.387	103
3307.425	110
3310.459	100
3313.492	112
3316.521	103
3319.549	111
3322.574	112
3325.597	99
3328.617	88
3331.635	90
3334.65	82
3337.663	99
3340.674	93
3343.682	96
3346.688	104
3349.691	90
3352.692	94
3355.691	95
3358.687	93
3361.681	93
3364.673	93
3367.662	89
3370.649	100
3373.633	81
3376.615	94
3379.595	74
3382.572	82
3385.547	76
3388.52	77
3391.49	80
3394.458	85
3397.424	85
3400.387	66
3403.348	82
3406.307	84
3409.263	71
3412.217	80
3415.168	76
3418.118	79
3421.065	69
3424.009	78
3426.951	73
3429.891	60
3432.829	63
3435.764	72
3438.697	55
3441.628	74
3444.557	50
3447.483	53
3450.407	62
3453.328	53
3456.247	52
3459.164	46
3462.079	59
3464.991	46
3467.902	43
3470.809	46
3473.715	46
3476.618	35
3479.519	40
3482.418	26
3485.315	28
3488.209	28
3491.101	29
3493.99	18
3496.878	13
3499.763	25
3502.646	20
3505.527	7
3508.405	11
3511.281	3
3514.155	17
3517.027	15
3519.897	-4
3522.764	14
3525.629	-8
3528.492	11
3531.352	9
3534.211	4
3537.067	1
3539.921	-4
3542.773	2
3545.622	-8
3548.469	-15
3551.315	-17
3554.157	-2
3556.998	-16
3559.837	-9
3562.673	-6
3565.507	-17
3568.339	-20
3571.169	-16
3573.996	-14
3576.822	-30
3579.645	-26
3582.466	-20
3585.285	-7
3588.101	-15
3590.916	-19
3593.728	-7
3596.538	-16
3599.346	-13
3602.152	-25
3604.956	-23
3607.757	-15
3610.556	-34
3613.354	-14
3616.149	-15
3618.942	-16
3621.732	-15
3624.521	-20
3627.307	-32
3630.092	-26
3632.874	-8
3635.654	-20
3638.432	-31
3641.208	-29
3643.982	-26
3646.753	-15
3649.523	-41
3652.29	-31
3655.055	-19
3657.818	-23
3660.579	-30
3663.338	-36
3666.095	-35
3668.849	-50
3671.602	-20
3674.352	-34
3677.101	-25
3679.847	-21
3682.591	-32
3685.333	-39
3688.073	-28
3690.811	-39
3693.547	-39
3696.281	-41
3699.013	-29
3701.742	-33
3704.47	-39
3707.195	-26
3709.919	-30
3712.64	-33
3715.359	-44
3718.076	-22
3720.792	-35
3723.505	-28
3726.216	-20
3728.925	-35
3731.632	-35
3734.336	-32
3737.039	-35
3739.74	-25
3742.439	-56
3745.136	-29
3747.83	-27
3750.523	-24
3753.213	-88
3755.902	-34
3758.589	-44
3761.273	-38
3763.956	-25
3766.636	-48
3769.315	-23
3771.991	-32
3774.665	-37
3777.338	-31
3780.008	-41
3782.677	-32
3785.343	-50
3788.007	-54
3790.67	-29
3793.33	-46
3795.989	-40
3798.645	-32
3801.299	-43
3803.952	-45
3806.602	-39
3809.251	-31
3811.897	-38
3814.542	-39
3817.184	-40
3819.825	-34
3822.463	-46
3825.1	-36
3827.735	-38
3830.367	-48
3832.998	-25
3835.627	-35
3838.253	-25
3840.878	-37
3843.501	-18
3846.122	-29
3848.741	-30
3851.358	-32
3853.973	-43
3856.586	-25
3859.197	-41
3861.806	-34
3864.414	-46
3867.019	-36
3869.622	-27
3872.224	-25
3874.823	-17
3877.421	-3
3880.016	13
3882.61	45
3885.202	59
3887.792	42
3890.38	15
3892.966	-17
3895.55	-37
3898.132	-28
3900.713	-28
3903.291	-31
3905.868	-41
3908.442	-30
3911.015	-38
3913.586	-38
3916.155	-35
3918.722	-42
3921.287	-41
3923.85	-45
3926.411	-40
3928.971	-35
3931.528	-29
3934.084	-36
3936.638	-44
3939.19	-30
3941.74	-28
3944.288	-39
3946.834	-36
3949.378	-26
3951.921	-41
3954.462	-36
3957	-31
3959.537	-23
3962.072	-32
3964.606	-48
3967.137	-34
3969.667	-40
3972.194	-32
3974.72	-36
3977.244	-56
3979.766	-46
3982.286	-41
3984.805	-32
3987.321	-21
3989.836	-27
3992.349	-41
3994.86	-33
3997.369	-44
3999.877	-36
4002.382	-36
4004.886	-25
4007.388	-31
4009.888	-25
4012.386	-24
4014.883	-29
4017.377	-30
4019.87	-33
4022.361	-43
4024.85	-33
4027.338	-33
4029.823	-37
4032.307	-37
4034.789	-35
4037.269	-27
4039.747	-42
4042.224	-23
4044.699	-47
4047.172	-38
4049.643	-29
4052.112	-60
4054.58	-32
4057.046	-41
4059.51	-32
4061.972	-35
4064.432	-53
4066.891	-24
4069.348	-36
4071.803	-28
4074.256	-36
4076.708	-32
4079.158	-37
4081.606	-22
4084.052	-38
4086.497	-30
4088.939	-35
4091.38	-36
4093.819	-27
4096.257	4
4098.693	-5
4101.127	-5
4103.559	2
4105.989	59
4108.418	56
4110.845	45
4113.27	53
4115.694	60
4118.115	43
4120.535	-34
4122.954	-27
4125.37	-28
4127.785	-31
4130.198	-25
4132.609	-32
4135.019	10
4137.427	-2
4139.833	3
4142.237	-7
