Data from 2018-3-6_conc=4_n=9_RamanShift_01.txt Node
Date: Tue Mar 06 14:15:48 GMT+02:00 2018
User: LAB3
Spectrometer: QEPB0276
Trigger mode: 0
Integration Time (sec): 3.000000E1
Scans to average: 1
Electric dark correction enabled: true
Nonlinearity correction enabled: false
Boxcar width: 0
XAxis mode: Raman Shifts
Number of Pixels in Spectrum: 1044
>>>>>Begin Spectral Data<<<<<
160.701	79
166.742	98
172.777	146
178.805	288
184.826	649
190.841	1286
196.849	2010
202.85	2545
208.845	2690
214.833	2679
220.815	2628
226.789	2599
232.758	2589
238.719	2585
244.674	2540
250.623	2488
256.565	2454
262.5	2428
268.429	2390
274.351	2354
280.267	2346
286.176	2353
292.079	2364
297.975	2335
303.865	2320
309.748	2329
315.625	2311
321.495	2318
327.359	2301
333.217	2297
339.068	2305
344.912	2322
350.751	2316
356.583	2329
362.408	2334
368.227	2345
374.04	2335
379.847	2358
385.647	2372
391.44	2358
397.228	2373
403.009	2378
408.784	2368
414.553	2392
420.315	2411
426.071	2381
431.821	2417
437.565	2405
443.302	2406
449.033	2360
454.758	2364
460.477	2342
466.189	2341
471.896	2307
477.596	2295
483.29	2280
488.978	2274
494.66	2229
500.335	2187
506.005	2089
511.668	1993
517.325	1913
522.977	1816
528.622	1761
534.261	1720
539.894	1670
545.521	1645
551.141	1616
556.756	1605
562.365	1598
567.968	1572
573.565	1562
579.155	1580
584.74	1557
590.319	1568
595.892	1553
601.459	1552
607.02	1549
612.575	1549
618.124	1520
623.667	1493
629.204	1468
634.735	1447
640.261	1449
645.781	1411
651.294	1402
656.802	1395
662.304	1421
667.8	1423
673.29	1403
678.775	1401
684.254	1396
689.726	1371
695.193	1378
700.655	1359
706.11	1360
711.56	1346
717.004	1335
722.442	1321
727.874	1332
733.301	1347
738.722	1310
744.137	1318
749.547	1306
754.951	1302
760.349	1322
765.741	1327
771.128	1330
776.509	1348
781.885	1384
787.254	1402
792.618	1383
797.977	1378
803.33	1370
808.677	1344
814.019	1359
819.355	1343
824.686	1319
830.011	1308
835.33	1317
840.644	1318
845.952	1292
851.255	1301
856.552	1268
861.844	1257
867.13	1247
872.41	1230
877.686	1223
882.955	1209
888.219	1199
893.478	1181
898.731	1172
903.979	1171
909.221	1146
914.458	1123
919.69	1144
924.916	1151
930.136	1159
935.351	1144
940.561	1158
945.766	1144
950.965	1152
956.158	1111
961.347	1110
966.529	1105
971.707	1090
976.879	1080
982.046	1077
987.208	1053
992.364	1052
997.515	1060
1002.66	1080
1007.801	1073
1012.936	1083
1018.066	1075
1023.19	1093
1028.309	1091
1033.423	1096
1038.532	1116
1043.636	1084
1048.734	1067
1053.827	1061
1058.915	1051
1063.998	1056
1069.075	1037
1074.147	1045
1079.214	1017
1084.276	1059
1089.333	1046
1094.385	1066
1099.431	1052
1104.472	1048
1109.509	1027
1114.54	1011
1119.565	995
1124.586	989
1129.602	976
1134.613	947
1139.618	964
1144.619	957
1149.614	980
1154.604	968
1159.589	953
1164.57	986
1169.545	991
1174.515	976
1179.48	979
1184.44	978
1189.395	965
1194.345	949
1199.29	951
1204.23	930
1209.165	928
1214.095	953
1219.021	945
1223.941	943
1228.856	954
1233.766	957
1238.672	956
1243.572	956
1248.467	953
1253.358	938
1258.244	924
1263.124	922
1268	899
1272.871	876
1277.737	872
1282.599	876
1287.455	865
1292.306	880
1297.153	860
1301.995	870
1306.832	878
1311.664	874
1316.491	877
1321.314	886
1326.132	865
1330.945	861
1335.753	838
1340.556	832
1345.354	811
1350.148	804
1354.937	799
1359.722	777
1364.501	767
1369.276	779
1374.046	781
1378.811	761
1383.572	774
1388.327	764
1393.079	755
1397.825	752
1402.567	753
1407.304	737
1412.036	744
1416.764	745
1421.487	725
1426.205	732
1430.919	730
1435.628	745
1440.333	741
1445.032	740
1449.727	747
1454.418	758
1459.104	766
1463.785	729
1468.462	735
1473.134	722
1477.802	706
1482.465	681
1487.123	683
1491.777	666
1496.426	651
1501.071	681
1505.711	676
1510.347	681
1514.978	692
1519.604	681
1524.226	678
1528.844	666
1533.457	672
1538.065	676
1542.669	676
1547.269	663
1551.864	658
1556.454	655
1561.041	659
1565.622	663
1570.199	677
1574.772	668
1579.34	678
1583.904	685
1588.464	703
1593.019	714
1597.569	687
1602.115	682
1606.657	685
1611.195	681
1615.728	690
1620.256	674
1624.78	651
1629.3	674
1633.816	680
1638.327	665
1642.834	683
1647.336	672
1651.834	690
1656.328	681
1660.817	673
1665.302	665
1669.783	668
1674.259	648
1678.732	627
1683.199	613
1687.663	587
1692.122	590
1696.577	571
1701.028	574
1705.474	546
1709.917	530
1714.355	520
1718.788	525
1723.218	512
1727.643	507
1732.064	506
1736.481	486
1740.893	500
1745.301	475
1749.705	452
1754.105	464
1758.501	443
1762.893	458
1767.28	420
1771.663	438
1776.042	415
1780.417	424
1784.787	415
1789.154	420
1793.516	419
1797.874	420
1802.228	399
1806.578	398
1810.924	412
1815.266	285
1819.603	412
1823.937	392
1828.266	389
1832.591	400
1836.913	397
1841.23	384
1845.543	381
1849.852	397
1854.156	375
1858.457	386
1862.754	393
1867.047	377
1871.335	407
1875.62	396
1879.9	387
1884.177	373
1888.449	375
1892.718	375
1896.982	379
1901.243	351
1905.499	354
1909.752	356
1914	343
1918.245	358
1922.485	362
1926.722	348
1930.954	351
1935.183	374
1939.408	363
1943.628	355
1947.845	360
1952.058	355
1956.267	332
1960.472	349
1964.673	338
1968.87	330
1973.063	342
1977.252	324
1981.438	327
1985.619	321
1989.797	307
1993.971	324
1998.14	330
2002.306	326
2006.469	321
2010.627	314
2014.781	325
2018.932	314
2023.078	318
2027.221	320
2031.36	295
2035.495	303
2039.627	303
2043.754	300
2047.878	298
2051.998	280
2056.114	289
2060.226	290
2064.334	297
2068.439	299
2072.54	293
2076.637	283
2080.73	295
2084.82	296
2088.906	288
2092.988	284
2097.066	288
2101.14	301
2105.211	288
2109.278	269
2113.342	275
2117.401	262
2121.457	257
2125.509	269
2129.558	268
2133.602	266
2137.643	263
2141.681	260
2145.714	263
2149.744	263
2153.77	261
2157.793	250
2161.812	226
2165.827	226
2169.838	252
2173.846	232
2177.851	234
2181.851	240
2185.848	232
2189.841	242
2193.831	228
2197.817	228
2201.799	225
2205.778	209
2209.753	207
2213.725	208
2217.693	214
2221.657	215
2225.618	221
2229.575	215
2233.529	216
2237.479	216
2241.425	207
2245.368	197
2249.307	204
2253.243	198
2257.175	200
2261.104	190
2265.029	199
2268.95	192
2272.868	192
2276.783	174
2280.694	190
2284.601	178
2288.505	173
2292.405	185
2296.302	167
2300.195	174
2304.085	145
2307.971	168
2311.854	141
2315.734	151
2319.609	168
2323.482	137
2327.351	151
2331.216	149
2335.078	156
2338.937	152
2342.792	148
2346.643	147
2350.492	153
2354.336	155
2358.178	149
2362.015	158
2365.85	147
2369.681	146
2373.508	153
2377.333	156
2381.153	158
2384.971	149
2388.785	151
2392.595	137
2396.402	132
2400.206	114
2404.007	136
2407.804	144
2411.597	141
2415.388	136
2419.174	136
2422.958	136
2426.738	132
2430.515	130
2434.289	123
2438.059	126
2441.825	121
2445.589	142
2449.349	116
2453.106	131
2456.859	124
2460.61	124
2464.356	117
2468.1	113
2471.84	109
2475.577	115
2479.311	116
2483.041	113
2486.768	131
2490.492	127
2494.213	114
2497.93	109
2501.644	96
2505.355	112
2509.062	109
2512.766	107
2516.467	104
2520.165	109
2523.859	96
2527.551	132
2531.239	99
2534.923	106
2538.605	100
2542.283	104
2545.958	100
2549.63	118
2553.299	111
2556.964	91
2560.626	101
2564.285	97
2567.941	86
2571.594	86
2575.243	101
2578.89	90
2582.533	91
2586.173	97
2589.809	94
2593.443	72
2597.073	93
2600.701	99
2604.325	86
2607.946	78
2611.564	95
2615.178	89
2618.79	94
2622.398	74
2626.004	90
2629.606	94
2633.205	79
2636.801	80
2640.394	83
2643.983	78
2647.57	83
2651.153	72
2654.734	86
2658.311	55
2661.885	73
2665.456	70
2669.025	71
2672.589	65
2676.151	83
2679.71	78
2683.266	71
2686.819	68
2690.368	76
2693.915	76
2697.458	72
2700.999	76
2704.536	66
2708.071	68
2711.602	62
2715.13	68
2718.656	46
2722.178	62
2725.697	46
2729.214	56
2732.727	61
2736.237	45
2739.744	51
2743.249	49
2746.75	56
2750.248	49
2753.743	65
2757.236	61
2760.725	71
2764.211	37
2767.695	61
2771.175	55
2774.652	58
2778.127	52
2781.598	54
2785.067	58
2788.532	49
2791.995	58
2795.455	47
2798.911	64
2802.365	51
2805.816	58
2809.264	66
2812.709	53
2816.151	56
2819.59	47
2823.026	51
2826.46	51
2829.89	63
2833.318	37
2836.742	57
2840.164	61
2843.583	54
2846.999	53
2850.412	58
2853.822	55
2857.229	66
2860.634	61
2864.035	47
2867.434	66
2870.83	69
2874.223	53
2877.613	63
2881	55
2884.385	56
2887.766	56
2891.145	63
2894.521	60
2897.894	49
2901.264	66
2904.631	71
2907.996	68
2911.358	68
2914.717	63
2918.073	64
2921.426	65
2924.777	47
2928.124	65
2931.469	81
2934.811	61
2938.15	82
2941.487	76
2944.821	90
2948.152	70
2951.48	79
2954.805	65
2958.128	86
2961.447	72
2964.765	86
2968.079	78
2971.39	78
2974.699	85
2978.005	77
2981.308	79
2984.609	73
2987.907	86
2991.202	95
2994.494	68
2997.784	86
3001.07	85
3004.355	77
3007.636	83
3010.915	90
3014.191	80
3017.464	96
3020.734	90
3024.002	93
3027.267	84
3030.53	99
3033.789	91
3037.046	94
3040.301	93
3043.552	99
3046.801	100
3050.048	107
3053.291	126
3056.532	111
3059.771	100
3063.006	120
3066.239	119
3069.469	123
3072.697	123
3075.922	120
3079.144	124
3082.364	151
3085.581	132
3088.795	158
3092.007	150
3095.216	155
3098.423	144
3101.627	128
3104.828	152
3108.026	146
3111.222	170
3114.416	175
3117.607	166
3120.795	175
3123.98	175
3127.163	161
3130.344	177
3133.521	174
3136.696	202
3139.869	189
3143.039	182
3146.206	209
3149.371	212
3152.533	207
3155.693	196
3158.85	206
3162.005	211
3165.157	209
3168.306	215
3171.453	224
3174.597	204
3177.739	198
3180.878	213
3184.014	219
3187.149	219
3190.28	224
3193.409	225
3196.536	223
3199.659	232
3202.781	236
3205.9	213
3209.016	230
3212.13	223
3215.241	221
3218.35	219
3221.456	205
3224.56	205
3227.661	215
3230.76	207
3233.856	205
3236.95	208
3240.041	193
3243.13	214
3246.216	207
3249.3	201
3252.382	198
3255.46	191
3258.537	142
3261.611	188
3264.682	196
3267.751	192
3270.818	187
3273.882	192
3276.943	187
3280.002	206
3283.059	180
3286.113	184
3289.165	179
3292.214	175
3295.261	194
3298.306	169
3301.348	175
3304.387	166
3307.425	178
3310.459	168
3313.492	177
3316.521	163
3319.549	174
3322.574	169
3325.597	163
3328.617	152
3331.635	162
3334.65	145
3337.663	160
3340.674	149
3343.682	162
3346.688	166
3349.691	158
3352.692	155
3355.691	162
3358.687	153
3361.681	161
3364.673	152
3367.662	162
3370.649	160
3373.633	146
3376.615	147
3379.595	128
3382.572	140
3385.547	128
3388.52	127
3391.49	134
3394.458	137
3397.424	133
3400.387	122
3403.348	131
3406.307	121
3409.263	121
3412.217	137
3415.168	122
3418.118	133
3421.065	119
3424.009	124
3426.951	113
3429.891	115
3432.829	115
3435.764	112
3438.697	93
3441.628	120
3444.557	94
3447.483	89
3450.407	104
3453.328	91
3456.247	91
3459.164	77
3462.079	103
3464.991	84
3467.902	78
3470.809	84
3473.715	80
3476.618	74
3479.519	70
3482.418	51
3485.315	56
3488.209	52
3491.101	63
3493.99	46
3496.878	44
3499.763	54
3502.646	57
3505.527	36
3508.405	41
3511.281	29
3514.155	48
3517.027	35
3519.897	27
3522.764	40
3525.629	12
3528.492	27
3531.352	35
3534.211	26
3537.067	24
3539.921	21
3542.773	28
3545.622	14
3548.469	6
3551.315	-1
3554.157	11
3556.998	3
3559.837	5
3562.673	8
3565.507	2
3568.339	-3
3571.169	5
3573.996	2
3576.822	-12
3579.645	-12
3582.466	-5
3585.285	3
3588.101	0
3590.916	-7
3593.728	3
3596.538	-4
3599.346	-4
3602.152	-13
3604.956	-6
3607.757	-6
3610.556	-19
3613.354	-5
3616.149	-4
3618.942	-6
3621.732	-5
3624.521	-15
3627.307	-21
3630.092	-23
3632.874	-2
3635.654	-18
3638.432	-18
3641.208	-18
3643.982	-20
3646.753	-5
3649.523	-38
3652.29	-22
3655.055	-10
3657.818	-17
3660.579	-20
3663.338	-31
3666.095	-23
3668.849	-41
3671.602	-19
3674.352	-34
3677.101	-13
3679.847	-14
3682.591	-30
3685.333	-30
3688.073	-24
3690.811	-30
3693.547	-36
3696.281	-33
3699.013	-24
3701.742	-29
3704.47	-42
3707.195	-24
3709.919	-27
3712.64	-23
3715.359	-35
3718.076	-17
3720.792	-26
3723.505	-24
3726.216	-18
3728.925	-32
3731.632	-31
3734.336	-28
3737.039	-26
3739.74	-25
3742.439	-57
3745.136	-19
3747.83	-24
3750.523	-24
3753.213	-75
3755.902	-32
3758.589	-45
3761.273	-33
3763.956	-19
3766.636	-42
3769.315	-19
3771.991	-30
3774.665	-31
3777.338	-34
3780.008	-37
3782.677	-32
3785.343	-43
3788.007	-37
3790.67	-25
3793.33	-43
3795.989	-35
3798.645	-29
3801.299	-36
3803.952	-41
3806.602	-37
3809.251	-27
3811.897	-33
3814.542	-36
3817.184	-33
3819.825	-32
3822.463	-47
3825.1	-31
3827.735	-27
3830.367	-43
3832.998	-21
3835.627	-37
3838.253	-23
3840.878	-33
3843.501	-13
3846.122	-31
3848.741	-26
3851.358	-23
3853.973	-41
3856.586	-24
3859.197	-40
3861.806	-30
3864.414	-37
3867.019	-32
3869.622	-23
3872.224	-18
3874.823	-4
3877.421	10
3880.016	27
3882.61	58
3885.202	72
3887.792	51
3890.38	28
3892.966	-9
3895.55	-31
3898.132	-27
3900.713	-20
3903.291	-25
3905.868	-36
3908.442	-29
3911.015	-31
3913.586	-34
3916.155	-35
3918.722	-35
3921.287	-40
3923.85	-44
3926.411	-38
3928.971	-38
3931.528	-30
3934.084	-30
3936.638	-44
3939.19	-30
3941.74	-30
3944.288	-34
3946.834	-37
3949.378	-28
3951.921	-32
3954.462	-33
3957	-28
3959.537	-22
3962.072	-35
3964.606	-48
3967.137	-37
3969.667	-37
3972.194	-30
3974.72	-40
3977.244	-55
3979.766	-41
3982.286	-43
3984.805	-32
3987.321	-21
3989.836	-24
3992.349	-43
3994.86	-28
3997.369	-43
3999.877	-35
4002.382	-35
4004.886	-29
4007.388	-30
4009.888	-20
4012.386	-21
4014.883	-30
4017.377	-28
4019.87	-26
4022.361	-40
4024.85	-31
4027.338	-31
4029.823	-38
4032.307	-34
4034.789	-34
4037.269	-27
4039.747	-43
4042.224	-23
4044.699	-41
4047.172	-33
4049.643	-29
4052.112	-55
4054.58	-31
4057.046	-47
4059.51	-28
4061.972	-32
4064.432	-55
4066.891	-22
4069.348	-35
4071.803	-28
4074.256	-40
4076.708	-31
4079.158	-35
4081.606	-22
4084.052	-32
4086.497	-26
4088.939	-35
4091.38	-35
4093.819	-28
4096.257	3
4098.693	-6
4101.127	-1
4103.559	1
4105.989	84
4108.418	86
4110.845	70
4113.27	81
4115.694	80
4118.115	72
4120.535	-30
4122.954	-26
4125.37	-23
4127.785	-27
4130.198	-24
4132.609	-29
4135.019	6
4137.427	-1
4139.833	3
4142.237	-5
