Data from 2018-3-6_conc=0_n=7_RamanShift_04.txt Node
Date: Tue Mar 06 12:28:49 GMT+02:00 2018
User: LAB3
Spectrometer: QEPB0276
Trigger mode: 0
Integration Time (sec): 3.000000E1
Scans to average: 1
Electric dark correction enabled: true
Nonlinearity correction enabled: false
Boxcar width: 0
XAxis mode: Raman Shifts
Number of Pixels in Spectrum: 1044
>>>>>Begin Spectral Data<<<<<
160.701	160
166.742	206
172.777	318
178.805	670
184.826	1563
190.841	3107
196.849	4994
202.85	6428
208.845	6934
214.833	6972
220.815	6916
226.789	6903
232.758	7011
238.719	7038
244.674	6988
250.623	7008
256.565	6895
262.5	6891
268.429	6882
274.351	6833
280.267	6813
286.176	6869
292.079	6891
297.975	6874
303.865	6881
309.748	6913
315.625	6884
321.495	6927
327.359	6961
333.217	6946
339.068	7003
344.912	7027
350.751	7051
356.583	7081
362.408	7120
368.227	7155
374.04	7177
379.847	7200
385.647	7250
391.44	7277
397.228	7345
403.009	7374
408.784	7383
414.553	7422
420.315	7443
426.071	7454
431.821	7434
437.565	7466
443.302	7445
449.033	7445
454.758	7340
460.477	7320
466.189	7246
471.896	7149
477.596	7121
483.29	7096
488.978	7103
494.66	7015
500.335	6856
506.005	6565
511.668	6281
517.325	5925
522.977	5706
528.622	5523
534.261	5435
539.894	5300
545.521	5237
551.141	5157
556.756	5110
562.365	5083
567.968	5040
573.565	5005
579.155	4965
584.74	4935
590.319	4933
595.892	4908
601.459	4928
607.02	4917
612.575	4851
618.124	4822
623.667	4753
629.204	4667
634.735	4612
640.261	4570
645.781	4518
651.294	4516
656.802	4502
662.304	4479
667.8	4472
673.29	4462
678.775	4462
684.254	4448
689.726	4394
695.193	4396
700.655	4346
706.11	4321
711.56	4318
717.004	4308
722.442	4245
727.874	4243
733.301	4249
738.722	4223
744.137	4198
749.547	4204
754.951	4241
760.349	4217
765.741	4285
771.128	4267
776.509	4330
781.885	4406
787.254	4428
792.618	4460
797.977	4425
803.33	4400
808.677	4358
814.019	4331
819.355	4314
824.686	4245
830.011	4223
835.33	4205
840.644	4214
845.952	4126
851.255	4165
856.552	4096
861.844	4065
867.13	4056
872.41	4040
877.686	4060
882.955	4118
888.219	4061
893.478	3944
898.731	3854
903.979	3773
909.221	3735
914.458	3687
919.69	3656
924.916	3692
930.136	3680
935.351	3674
940.561	3693
945.766	3690
950.965	3694
956.158	3636
961.347	3611
966.529	3560
971.707	3528
976.879	3465
982.046	3416
987.208	3408
992.364	3420
997.515	3400
1002.66	3463
1007.801	3479
1012.936	3509
1018.066	3503
1023.19	3553
1028.309	3569
1033.423	3571
1038.532	3611
1043.636	3576
1048.734	3545
1053.827	3533
1058.915	3497
1063.998	3460
1069.075	3439
1074.147	3416
1079.214	3442
1084.276	3453
1089.333	3483
1094.385	3477
1099.431	3453
1104.472	3461
1109.509	3377
1114.54	3366
1119.565	3285
1124.586	3229
1129.602	3181
1134.613	3180
1139.618	3145
1144.619	3162
1149.614	3169
1154.604	3145
1159.589	3171
1164.57	3177
1169.545	3213
1174.515	3170
1179.48	3179
1184.44	3152
1189.395	3135
1194.345	3090
1199.29	3080
1204.23	3087
1209.165	3073
1214.095	3106
1219.021	3103
1223.941	3104
1228.856	3121
1233.766	3133
1238.672	3155
1243.572	3160
1248.467	3130
1253.358	3077
1258.244	3005
1263.124	2993
1268	2946
1272.871	2860
1277.737	2871
1282.599	2864
1287.455	2864
1292.306	2855
1297.153	2856
1301.995	2856
1306.832	2871
1311.664	2899
1316.491	2886
1321.314	2899
1326.132	2852
1330.945	2809
1335.753	2778
1340.556	2717
1345.354	2669
1350.148	2671
1354.937	2631
1359.722	2550
1364.501	2568
1369.276	2584
1374.046	2571
1378.811	2549
1383.572	2559
1388.327	2542
1393.079	2534
1397.825	2518
1402.567	2492
1407.304	2479
1412.036	2448
1416.764	2486
1421.487	2439
1426.205	2448
1430.919	2473
1435.628	2484
1440.333	2504
1445.032	2524
1449.727	2568
1454.418	2588
1459.104	2598
1463.785	2561
1468.462	2531
1473.134	2460
1477.802	2428
1482.465	2373
1487.123	2347
1491.777	2323
1496.426	2311
1501.071	2337
1505.711	2333
1510.347	2350
1514.978	2350
1519.604	2348
1524.226	2343
1528.844	2327
1533.457	2334
1538.065	2303
1542.669	2265
1547.269	2256
1551.864	2251
1556.454	2225
1561.041	2222
1565.622	2219
1570.199	2226
1574.772	2252
1579.34	2278
1583.904	2283
1588.464	2322
1593.019	2341
1597.569	2317
1602.115	2265
1606.657	2273
1611.195	2278
1615.728	2270
1620.256	2238
1624.78	2226
1629.3	2254
1633.816	2261
1638.327	2261
1642.834	2280
1647.336	2305
1651.834	2321
1656.328	2326
1660.817	2308
1665.302	2291
1669.783	2269
1674.259	2246
1678.732	2195
1683.199	2130
1687.663	2070
1692.122	2061
1696.577	2015
1701.028	1977
1705.474	1945
1709.917	1895
1714.355	1895
1718.788	1874
1723.218	1846
1727.643	1831
1732.064	1813
1736.481	1775
1740.893	1763
1745.301	1731
1749.705	1646
1754.105	1639
1758.501	1588
1762.893	1598
1767.28	1535
1771.663	1528
1776.042	1531
1780.417	1526
1784.787	1520
1789.154	1515
1793.516	1524
1797.874	1533
1802.228	1516
1806.578	1498
1810.924	1523
1815.266	1398
1819.603	1466
1823.937	1436
1828.266	1407
1832.591	1416
1836.913	1397
1841.23	1383
1845.543	1386
1849.852	1404
1854.156	1385
1858.457	1394
1862.754	1392
1867.047	1402
1871.335	1431
1875.62	1411
1879.9	1417
1884.177	1394
1888.449	1412
1892.718	1390
1896.982	1406
1901.243	1367
1905.499	1358
1909.752	1359
1914	1332
1918.245	1378
1922.485	1369
1926.722	1388
1930.954	1374
1935.183	1378
1939.408	1393
1943.628	1366
1947.845	1353
1952.058	1350
1956.267	1314
1960.472	1315
1964.673	1284
1968.87	1246
1973.063	1240
1977.252	1222
1981.438	1209
1985.619	1184
1989.797	1167
1993.971	1169
1998.14	1177
2002.306	1158
2006.469	1175
2010.627	1158
2014.781	1132
2018.932	1153
2023.078	1147
2027.221	1141
2031.36	1122
2035.495	1108
2039.627	1094
2043.754	1101
2047.878	1080
2051.998	1063
2056.114	1067
2060.226	1068
2064.334	1092
2068.439	1092
2072.54	1102
2076.637	1086
2080.73	1095
2084.82	1108
2088.906	1089
2092.988	1082
2097.066	1086
2101.14	1089
2105.211	1063
2109.278	1043
2113.342	1037
2117.401	1024
2121.457	1002
2125.509	1007
2129.558	1001
2133.602	996
2137.643	976
2141.681	966
2145.714	957
2149.744	966
2153.77	935
2157.793	937
2161.812	904
2165.827	897
2169.838	915
2173.846	883
2177.851	872
2181.851	861
2185.848	837
2189.841	849
2193.831	845
2197.817	827
2201.799	819
2205.778	810
2209.753	798
2213.725	812
2217.693	820
2221.657	800
2225.618	815
2229.575	798
2233.529	790
2237.479	791
2241.425	766
2245.368	755
2249.307	743
2253.243	747
2257.175	746
2261.104	725
2265.029	713
2268.95	705
2272.868	691
2276.783	672
2280.694	675
2284.601	684
2288.505	661
2292.405	667
2296.302	635
2300.195	630
2304.085	602
2307.971	625
2311.854	589
2315.734	598
2319.609	596
2323.482	561
2327.351	576
2331.216	581
2335.078	575
2338.937	572
2342.792	557
2346.643	553
2350.492	568
2354.336	565
2358.178	583
2362.015	563
2365.85	569
2369.681	572
2373.508	567
2377.333	571
2381.153	576
2384.971	567
2388.785	558
2392.595	536
2396.402	539
2400.206	515
2404.007	525
2407.804	533
2411.597	532
2415.388	531
2419.174	525
2422.958	535
2426.738	529
2430.515	521
2434.289	514
2438.059	517
2441.825	506
2445.589	514
2449.349	494
2453.106	498
2456.859	494
2460.61	495
2464.356	475
2468.1	466
2471.84	466
2475.577	461
2479.311	465
2483.041	460
2486.768	479
2490.492	473
2494.213	466
2497.93	458
2501.644	449
2505.355	457
2509.062	455
2512.766	458
2516.467	448
2520.165	447
2523.859	434
2527.551	468
2531.239	438
2534.923	445
2538.605	433
2542.283	442
2545.958	440
2549.63	441
2553.299	442
2556.964	425
2560.626	434
2564.285	418
2567.941	415
2571.594	403
2575.243	420
2578.89	401
2582.533	412
2586.173	409
2589.809	398
2593.443	374
2597.073	385
2600.701	391
2604.325	393
2607.946	366
2611.564	393
2615.178	378
2618.79	385
2622.398	375
2626.004	364
2629.606	369
2633.205	358
2636.801	364
2640.394	360
2643.983	345
2647.57	343
2651.153	332
2654.734	350
2658.311	315
2661.885	326
2665.456	328
2669.025	320
2672.589	322
2676.151	325
2679.71	325
2683.266	316
2686.819	308
2690.368	308
2693.915	314
2697.458	312
2700.999	304
2704.536	310
2708.071	304
2711.602	295
2715.13	290
2718.656	269
2722.178	291
2725.697	276
2729.214	289
2732.727	281
2736.237	270
2739.744	279
2743.249	274
2746.75	283
2750.248	278
2753.743	287
2757.236	280
2760.725	292
2764.211	248
2767.695	283
2771.175	282
2774.652	278
2778.127	263
2781.598	272
2785.067	272
2788.532	269
2791.995	269
2795.455	268
2798.911	269
2802.365	265
2805.816	274
2809.264	284
2812.709	275
2816.151	279
2819.59	265
2823.026	279
2826.46	281
2829.89	287
2833.318	261
2836.742	276
2840.164	286
2843.583	286
2846.999	292
2850.412	291
2853.822	288
2857.229	300
2860.634	304
2864.035	293
2867.434	314
2870.83	329
2874.223	321
2877.613	335
2881	335
2884.385	341
2887.766	346
2891.145	350
2894.521	343
2897.894	320
2901.264	339
2904.631	334
2907.996	353
2911.358	357
2914.717	345
2918.073	348
2921.426	343
2924.777	341
2928.124	366
2931.469	390
2934.811	382
2938.15	417
2941.487	402
2944.821	423
2948.152	397
2951.48	404
2954.805	375
2958.128	395
2961.447	364
2964.765	377
2968.079	373
2971.39	373
2974.699	368
2978.005	378
2981.308	381
2984.609	386
2987.907	400
2991.202	397
2994.494	386
2997.784	389
3001.07	385
3004.355	373
3007.636	381
3010.915	384
3014.191	380
3017.464	384
3020.734	381
3024.002	387
3027.267	371
3030.53	393
3033.789	391
3037.046	401
3040.301	379
3043.552	405
3046.801	408
3050.048	422
3053.291	443
3056.532	437
3059.771	436
3063.006	470
3066.239	466
3069.469	477
3072.697	485
3075.922	495
3079.144	506
3082.364	534
3085.581	515
3088.795	551
3092.007	562
3095.216	563
3098.423	568
3101.627	549
3104.828	593
3108.026	578
3111.222	621
3114.416	628
3117.607	637
3120.795	648
3123.98	671
3127.163	672
3130.344	683
3133.521	688
3136.696	729
3139.869	727
3143.039	728
3146.206	766
3149.371	762
3152.533	762
3155.693	762
3158.85	790
3162.005	773
3165.157	786
3168.306	772
3171.453	802
3174.597	778
3177.739	769
3180.878	790
3184.014	786
3187.149	796
3190.28	798
3193.409	809
3196.536	802
3199.659	808
3202.781	811
3205.9	801
3209.016	808
3212.13	797
3215.241	798
3218.35	794
3221.456	789
3224.56	768
3227.661	780
3230.76	768
3233.856	746
3236.95	760
3240.041	746
3243.13	761
3246.216	742
3249.3	751
3252.382	750
3255.46	723
3258.537	682
3261.611	722
3264.682	728
3267.751	722
3270.818	715
3273.882	733
3276.943	717
3280.002	731
3283.059	700
3286.113	695
3289.165	681
3292.214	677
3295.261	681
3298.306	652
3301.348	657
3304.387	631
3307.425	634
3310.459	632
3313.492	632
3316.521	614
3319.549	615
3322.574	624
3325.597	599
3328.617	594
3331.635	585
3334.65	579
3337.663	602
3340.674	586
3343.682	596
3346.688	589
3349.691	573
3352.692	578
3355.691	584
3358.687	576
3361.681	573
3364.673	561
3367.662	575
3370.649	555
3373.633	552
3376.615	549
3379.595	533
3382.572	535
3385.547	521
3388.52	513
3391.49	510
3394.458	512
3397.424	514
3400.387	476
3403.348	493
3406.307	491
3409.263	482
3412.217	473
3415.168	472
3418.118	484
3421.065	474
3424.009	467
3426.951	445
3429.891	447
3432.829	436
3435.764	442
3438.697	412
3441.628	426
3444.557	404
3447.483	393
3450.407	400
3453.328	385
3456.247	371
3459.164	352
3462.079	363
3464.991	340
3467.902	340
3470.809	332
3473.715	325
3476.618	302
3479.519	304
3482.418	281
3485.315	282
3488.209	276
3491.101	273
3493.99	253
3496.878	259
3499.763	256
3502.646	243
3505.527	229
3508.405	233
3511.281	216
3514.155	217
3517.027	210
3519.897	193
3522.764	194
3525.629	167
3528.492	177
3531.352	173
3534.211	159
3537.067	151
3539.921	151
3542.773	149
3545.622	129
3548.469	124
3551.315	112
3554.157	119
3556.998	114
3559.837	113
3562.673	105
3565.507	97
3568.339	91
3571.169	94
3573.996	89
3576.822	64
3579.645	77
3582.466	68
3585.285	79
3588.101	73
3590.916	66
3593.728	72
3596.538	63
3599.346	62
3602.152	47
3604.956	52
3607.757	52
3610.556	39
3613.354	48
3616.149	43
3618.942	36
3621.732	41
3624.521	29
3627.307	19
3630.092	23
3632.874	38
3635.654	27
3638.432	17
3641.208	17
3643.982	18
3646.753	26
3649.523	-3
3652.29	9
3655.055	14
3657.818	11
3660.579	7
3663.338	-1
3666.095	6
3668.849	-19
3671.602	11
3674.352	-13
3677.101	12
3679.847	11
3682.591	-12
3685.333	-17
3688.073	-6
3690.811	-16
3693.547	-15
3696.281	-16
3699.013	-5
3701.742	-12
3704.47	-23
3707.195	-4
3709.919	-8
3712.64	-17
3715.359	-28
3718.076	-5
3720.792	-18
3723.505	-11
3726.216	-2
3728.925	-24
3731.632	-23
3734.336	-20
3737.039	-18
3739.74	-18
3742.439	-39
3745.136	-16
3747.83	-16
3750.523	-13
3753.213	-83
3755.902	-26
3758.589	-36
3761.273	-26
3763.956	-10
3766.636	-37
3769.315	-11
3771.991	-23
3774.665	-30
3777.338	-23
3780.008	-30
3782.677	-25
3785.343	-38
3788.007	-41
3790.67	-18
3793.33	-39
3795.989	-30
3798.645	-27
3801.299	-41
3803.952	-39
3806.602	-31
3809.251	-19
3811.897	-24
3814.542	-29
3817.184	-28
3819.825	-30
3822.463	-32
3825.1	-32
3827.735	-26
3830.367	-41
3832.998	-15
3835.627	-31
3838.253	-21
3840.878	-25
3843.501	-13
3846.122	-21
3848.741	-22
3851.358	-19
3853.973	-34
3856.586	-15
3859.197	-37
3861.806	-25
3864.414	-35
3867.019	-29
3869.622	-16
3872.224	-14
3874.823	7
3877.421	35
3880.016	62
3882.61	112
3885.202	132
3887.792	96
3890.38	46
3892.966	1
3895.55	-22
3898.132	-16
3900.713	-18
3903.291	-25
3905.868	-38
3908.442	-28
3911.015	-28
3913.586	-34
3916.155	-30
3918.722	-39
3921.287	-30
3923.85	-43
3926.411	-35
3928.971	-36
3931.528	-29
3934.084	-28
3936.638	-40
3939.19	-28
3941.74	-27
3944.288	-33
3946.834	-32
3949.378	-23
3951.921	-34
3954.462	-29
3957	-28
3959.537	-18
3962.072	-29
3964.606	-42
3967.137	-31
3969.667	-36
3972.194	-22
3974.72	-32
3977.244	-50
3979.766	-35
3982.286	-31
3984.805	-23
3987.321	-18
3989.836	-25
3992.349	-38
3994.86	-30
3997.369	-30
3999.877	-31
4002.382	-31
4004.886	-28
4007.388	-23
4009.888	-11
4012.386	-17
4014.883	-23
4017.377	-29
4019.87	-27
4022.361	-40
4024.85	-27
4027.338	-28
4029.823	-33
4032.307	-26
4034.789	-28
4037.269	-27
4039.747	-39
4042.224	-15
4044.699	-35
4047.172	-30
4049.643	-19
4052.112	-50
4054.58	-25
4057.046	-37
4059.51	-24
4061.972	-25
4064.432	-40
4066.891	-18
4069.348	-28
4071.803	-22
4074.256	-38
4076.708	-23
4079.158	-23
4081.606	-17
4084.052	-29
4086.497	-21
4088.939	-21
4091.38	-31
4093.819	-21
4096.257	1
4098.693	-8
4101.127	-4
4103.559	1
4105.989	136
4108.418	137
4110.845	128
4113.27	135
4115.694	146
4118.115	140
4120.535	-23
4122.954	-19
4125.37	-16
4127.785	-26
4130.198	-17
4132.609	-24
4135.019	9
4137.427	0
4139.833	5
4142.237	-4
