Data from 2018-3-6_conc=2_n=8_RamanShift_05.txt Node
Date: Tue Mar 06 13:05:19 GMT+02:00 2018
User: LAB3
Spectrometer: QEPB0276
Trigger mode: 0
Integration Time (sec): 3.000000E1
Scans to average: 1
Electric dark correction enabled: true
Nonlinearity correction enabled: false
Boxcar width: 0
XAxis mode: Raman Shifts
Number of Pixels in Spectrum: 1044
>>>>>Begin Spectral Data<<<<<
160.701	153
166.742	189
172.777	288
178.805	578
184.826	1317
190.841	2664
196.849	4218
202.85	5398
208.845	5824
214.833	5838
220.815	5764
226.789	5791
232.758	5863
238.719	5878
244.674	5850
250.623	5819
256.565	5783
262.5	5742
268.429	5695
274.351	5681
280.267	5696
286.176	5705
292.079	5727
297.975	5732
303.865	5731
309.748	5741
315.625	5748
321.495	5770
327.359	5767
333.217	5812
339.068	5815
344.912	5871
350.751	5898
356.583	5855
362.408	5932
368.227	5950
374.04	5972
379.847	6005
385.647	6047
391.44	6099
397.228	6073
403.009	6169
408.784	6176
414.553	6221
420.315	6229
426.071	6195
431.821	6223
437.565	6209
443.302	6215
449.033	6185
454.758	6152
460.477	6100
466.189	6015
471.896	5995
477.596	5908
483.29	5881
488.978	5904
494.66	5859
500.335	5661
506.005	5447
511.668	5143
517.325	4910
522.977	4685
528.622	4505
534.261	4381
539.894	4309
545.521	4224
551.141	4158
556.756	4155
562.365	4092
567.968	4062
573.565	4049
579.155	4050
584.74	3973
590.319	3998
595.892	3977
601.459	3991
607.02	3951
612.575	3947
618.124	3894
623.667	3804
629.204	3771
634.735	3728
640.261	3682
645.781	3635
651.294	3611
656.802	3646
662.304	3601
667.8	3613
673.29	3583
678.775	3561
684.254	3543
689.726	3537
695.193	3543
700.655	3494
706.11	3474
711.56	3457
717.004	3477
722.442	3402
727.874	3421
733.301	3413
738.722	3397
744.137	3389
749.547	3370
754.951	3387
760.349	3398
765.741	3415
771.128	3433
776.509	3491
781.885	3547
787.254	3588
792.618	3582
797.977	3606
803.33	3554
808.677	3544
814.019	3501
819.355	3464
824.686	3444
830.011	3418
835.33	3405
840.644	3380
845.952	3338
851.255	3326
856.552	3286
861.844	3258
867.13	3224
872.41	3177
877.686	3144
882.955	3147
888.219	3105
893.478	3037
898.731	3016
903.979	2989
909.221	2945
914.458	2954
919.69	2958
924.916	2946
930.136	2953
935.351	2926
940.561	2951
945.766	2948
950.965	2948
956.158	2891
961.347	2879
966.529	2842
971.707	2819
976.879	2770
982.046	2736
987.208	2726
992.364	2718
997.515	2740
1002.66	2765
1007.801	2769
1012.936	2785
1018.066	2807
1023.19	2836
1028.309	2843
1033.423	2836
1038.532	2829
1043.636	2846
1048.734	2792
1053.827	2775
1058.915	2722
1063.998	2726
1069.075	2718
1074.147	2738
1079.214	2737
1084.276	2749
1089.333	2718
1094.385	2746
1099.431	2729
1104.472	2744
1109.509	2670
1114.54	2644
1119.565	2609
1124.586	2596
1129.602	2553
1134.613	2515
1139.618	2501
1144.619	2520
1149.614	2516
1154.604	2507
1159.589	2520
1164.57	2547
1169.545	2578
1174.515	2547
1179.48	2554
1184.44	2527
1189.395	2510
1194.345	2503
1199.29	2477
1204.23	2471
1209.165	2473
1214.095	2485
1219.021	2477
1223.941	2501
1228.856	2498
1233.766	2523
1238.672	2516
1243.572	2510
1248.467	2492
1253.358	2458
1258.244	2403
1263.124	2390
1268	2360
1272.871	2296
1277.737	2255
1282.599	2284
1287.455	2249
1292.306	2261
1297.153	2260
1301.995	2287
1306.832	2304
1311.664	2303
1316.491	2285
1321.314	2277
1326.132	2267
1330.945	2233
1335.753	2220
1340.556	2161
1345.354	2131
1350.148	2096
1354.937	2076
1359.722	2065
1364.501	2045
1369.276	2043
1374.046	2050
1378.811	2034
1383.572	2020
1388.327	2028
1393.079	1999
1397.825	1989
1402.567	1964
1407.304	1976
1412.036	1938
1416.764	1955
1421.487	1941
1426.205	1938
1430.919	1940
1435.628	1954
1440.333	1954
1445.032	1983
1449.727	1994
1454.418	2018
1459.104	2018
1463.785	1972
1468.462	1931
1473.134	1906
1477.802	1893
1482.465	1848
1487.123	1824
1491.777	1806
1496.426	1813
1501.071	1838
1505.711	1836
1510.347	1866
1514.978	1856
1519.604	1849
1524.226	1870
1528.844	1845
1533.457	1841
1538.065	1817
1542.669	1820
1547.269	1795
1551.864	1776
1556.454	1767
1561.041	1781
1565.622	1781
1570.199	1773
1574.772	1803
1579.34	1828
1583.904	1831
1588.464	1840
1593.019	1848
1597.569	1821
1602.115	1837
1606.657	1826
1611.195	1846
1615.728	1822
1620.256	1804
1624.78	1778
1629.3	1801
1633.816	1812
1638.327	1802
1642.834	1834
1647.336	1856
1651.834	1883
1656.328	1865
1660.817	1854
1665.302	1834
1669.783	1809
1674.259	1789
1678.732	1740
1683.199	1697
1687.663	1643
1692.122	1630
1696.577	1595
1701.028	1571
1705.474	1537
1709.917	1508
1714.355	1515
1718.788	1491
1723.218	1465
1727.643	1447
1732.064	1433
1736.481	1405
1740.893	1387
1745.301	1361
1749.705	1317
1754.105	1306
1758.501	1253
1762.893	1255
1767.28	1235
1771.663	1215
1776.042	1211
1780.417	1194
1784.787	1208
1789.154	1216
1793.516	1207
1797.874	1206
1802.228	1195
1806.578	1202
1810.924	1195
1815.266	1064
1819.603	1184
1823.937	1135
1828.266	1129
1832.591	1131
1836.913	1112
1841.23	1115
1845.543	1109
1849.852	1103
1854.156	1086
1858.457	1092
1862.754	1093
1867.047	1115
1871.335	1117
1875.62	1118
1879.9	1104
1884.177	1097
1888.449	1112
1892.718	1100
1896.982	1104
1901.243	1068
1905.499	1078
1909.752	1065
1914	1048
1918.245	1083
1922.485	1072
1926.722	1084
1930.954	1072
1935.183	1103
1939.408	1091
1943.628	1091
1947.845	1089
1952.058	1070
1956.267	1047
1960.472	1049
1964.673	1021
1968.87	1004
1973.063	984
1977.252	980
1981.438	957
1985.619	942
1989.797	940
1993.971	927
1998.14	958
2002.306	934
2006.469	942
2010.627	917
2014.781	907
2018.932	905
2023.078	919
2027.221	912
2031.36	886
2035.495	897
2039.627	878
2043.754	885
2047.878	862
2051.998	854
2056.114	856
2060.226	867
2064.334	874
2068.439	868
2072.54	877
2076.637	877
2080.73	880
2084.82	881
2088.906	874
2092.988	868
2097.066	867
2101.14	880
2105.211	853
2109.278	835
2113.342	842
2117.401	817
2121.457	803
2125.509	796
2129.558	806
2133.602	794
2137.643	798
2141.681	788
2145.714	783
2149.744	783
2153.77	758
2157.793	751
2161.812	731
2165.827	704
2169.838	737
2173.846	725
2177.851	699
2181.851	696
2185.848	692
2189.841	679
2193.831	672
2197.817	671
2201.799	661
2205.778	658
2209.753	655
2213.725	642
2217.693	653
2221.657	641
2225.618	646
2229.575	627
2233.529	638
2237.479	643
2241.425	623
2245.368	600
2249.307	600
2253.243	589
2257.175	584
2261.104	572
2265.029	565
2268.95	560
2272.868	554
2276.783	546
2280.694	549
2284.601	541
2288.505	534
2292.405	530
2296.302	507
2300.195	507
2304.085	479
2307.971	495
2311.854	473
2315.734	481
2319.609	483
2323.482	455
2327.351	452
2331.216	450
2335.078	463
2338.937	452
2342.792	443
2346.643	441
2350.492	450
2354.336	451
2358.178	455
2362.015	452
2365.85	451
2369.681	450
2373.508	459
2377.333	454
2381.153	450
2384.971	441
2388.785	438
2392.595	427
2396.402	433
2400.206	405
2404.007	422
2407.804	423
2411.597	424
2415.388	428
2419.174	415
2422.958	416
2426.738	413
2430.515	414
2434.289	399
2438.059	403
2441.825	400
2445.589	401
2449.349	390
2453.106	391
2456.859	386
2460.61	382
2464.356	373
2468.1	379
2471.84	369
2475.577	365
2479.311	373
2483.041	368
2486.768	385
2490.492	376
2494.213	369
2497.93	366
2501.644	352
2505.355	367
2509.062	362
2512.766	359
2516.467	361
2520.165	357
2523.859	339
2527.551	370
2531.239	340
2534.923	337
2538.605	353
2542.283	353
2545.958	344
2549.63	347
2553.299	349
2556.964	331
2560.626	338
2564.285	335
2567.941	327
2571.594	319
2575.243	325
2578.89	316
2582.533	320
2586.173	320
2589.809	315
2593.443	295
2597.073	309
2600.701	311
2604.325	308
2607.946	303
2611.564	303
2615.178	303
2618.79	298
2622.398	288
2626.004	283
2629.606	292
2633.205	275
2636.801	290
2640.394	280
2643.983	271
2647.57	270
2651.153	258
2654.734	268
2658.311	244
2661.885	256
2665.456	258
2669.025	256
2672.589	245
2676.151	272
2679.71	252
2683.266	247
2686.819	247
2690.368	248
2693.915	241
2697.458	243
2700.999	244
2704.536	241
2708.071	240
2711.602	227
2715.13	225
2718.656	214
2722.178	219
2725.697	214
2729.214	221
2732.727	226
2736.237	206
2739.744	217
2743.249	217
2746.75	225
2750.248	214
2753.743	214
2757.236	224
2760.725	227
2764.211	197
2767.695	224
2771.175	214
2774.652	213
2778.127	213
2781.598	206
2785.067	220
2788.532	199
2791.995	211
2795.455	204
2798.911	214
2802.365	207
2805.816	211
2809.264	222
2812.709	215
2816.151	214
2819.59	209
2823.026	206
2826.46	208
2829.89	217
2833.318	197
2836.742	210
2840.164	212
2843.583	209
2846.999	217
2850.412	217
2853.822	214
2857.229	231
2860.634	235
2864.035	204
2867.434	230
2870.83	229
2874.223	234
2877.613	236
2881	233
2884.385	234
2887.766	240
2891.145	230
2894.521	232
2897.894	220
2901.264	242
2904.631	242
2907.996	244
2911.358	252
2914.717	255
2918.073	232
2921.426	244
2924.777	234
2928.124	246
2931.469	267
2934.811	254
2938.15	287
2941.487	279
2944.821	297
2948.152	277
2951.48	281
2954.805	262
2958.128	284
2961.447	267
2964.765	281
2968.079	272
2971.39	277
2974.699	279
2978.005	281
2981.308	286
2984.609	286
2987.907	300
2991.202	297
2994.494	280
2997.784	294
3001.07	294
3004.355	307
3007.636	305
3010.915	312
3014.191	300
3017.464	315
3020.734	313
3024.002	326
3027.267	315
3030.53	313
3033.789	319
3037.046	330
3040.301	328
3043.552	335
3046.801	345
3050.048	358
3053.291	373
3056.532	360
3059.771	356
3063.006	384
3066.239	377
3069.469	392
3072.697	398
3075.922	410
3079.144	424
3082.364	455
3085.581	438
3088.795	460
3092.007	466
3095.216	478
3098.423	479
3101.627	463
3104.828	496
3108.026	488
3111.222	518
3114.416	530
3117.607	529
3120.795	544
3123.98	561
3127.163	557
3130.344	574
3133.521	583
3136.696	611
3139.869	613
3143.039	607
3146.206	646
3149.371	645
3152.533	641
3155.693	637
3158.85	652
3162.005	662
3165.157	666
3168.306	666
3171.453	672
3174.597	648
3177.739	644
3180.878	669
3184.014	677
3187.149	671
3190.28	665
3193.409	668
3196.536	676
3199.659	682
3202.781	691
3205.9	667
3209.016	689
3212.13	683
3215.241	675
3218.35	673
3221.456	661
3224.56	650
3227.661	664
3230.76	638
3233.856	642
3236.95	645
3240.041	637
3243.13	647
3246.216	636
3249.3	628
3252.382	636
3255.46	620
3258.537	578
3261.611	617
3264.682	620
3267.751	620
3270.818	604
3273.882	618
3276.943	617
3280.002	612
3283.059	587
3286.113	591
3289.165	589
3292.214	571
3295.261	579
3298.306	554
3301.348	562
3304.387	537
3307.425	552
3310.459	536
3313.492	538
3316.521	532
3319.549	526
3322.574	524
3325.597	510
3328.617	501
3331.635	502
3334.65	493
3337.663	505
3340.674	497
3343.682	509
3346.688	505
3349.691	497
3352.692	488
3355.691	504
3358.687	487
3361.681	496
3364.673	480
3367.662	483
3370.649	479
3373.633	465
3376.615	461
3379.595	442
3382.572	449
3385.547	441
3388.52	434
3391.49	427
3394.458	427
3397.424	432
3400.387	419
3403.348	419
3406.307	407
3409.263	411
3412.217	418
3415.168	407
3418.118	412
3421.065	386
3424.009	402
3426.951	375
3429.891	372
3432.829	375
3435.764	376
3438.697	361
3441.628	369
3444.557	335
3447.483	329
3450.407	337
3453.328	315
3456.247	309
3459.164	296
3462.079	300
3464.991	294
3467.902	283
3470.809	271
3473.715	277
3476.618	259
3479.519	260
3482.418	232
3485.315	235
3488.209	230
3491.101	233
3493.99	206
3496.878	210
3499.763	214
3502.646	209
3505.527	192
3508.405	196
3511.281	173
3514.155	185
3517.027	171
3519.897	156
3522.764	166
3525.629	137
3528.492	149
3531.352	144
3534.211	142
3537.067	124
3539.921	130
3542.773	128
3545.622	104
3548.469	100
3551.315	102
3554.157	101
3556.998	93
3559.837	90
3562.673	93
3565.507	82
3568.339	79
3571.169	78
3573.996	73
3576.822	57
3579.645	60
3582.466	65
3585.285	65
3588.101	58
3590.916	56
3593.728	56
3596.538	48
3599.346	50
3602.152	43
3604.956	41
3607.757	39
3610.556	24
3613.354	38
3616.149	32
3618.942	35
3621.732	33
3624.521	20
3627.307	10
3630.092	12
3632.874	31
3635.654	18
3638.432	12
3641.208	11
3643.982	16
3646.753	26
3649.523	-5
3652.29	5
3655.055	11
3657.818	6
3660.579	2
3663.338	-10
3666.095	-7
3668.849	-21
3671.602	5
3674.352	-15
3677.101	4
3679.847	3
3682.591	-14
3685.333	-19
3688.073	-5
3690.811	-21
3693.547	-18
3696.281	-21
3699.013	-6
3701.742	-11
3704.47	-26
3707.195	-15
3709.919	-14
3712.64	-20
3715.359	-32
3718.076	-9
3720.792	-23
3723.505	-18
3726.216	-8
3728.925	-23
3731.632	-25
3734.336	-18
3737.039	-24
3739.74	-18
3742.439	-50
3745.136	-17
3747.83	-19
3750.523	-17
3753.213	-84
3755.902	-26
3758.589	-32
3761.273	-25
3763.956	-19
3766.636	-37
3769.315	-19
3771.991	-25
3774.665	-33
3777.338	-24
3780.008	-35
3782.677	-27
3785.343	-40
3788.007	-42
3790.67	-18
3793.33	-40
3795.989	-30
3798.645	-28
3801.299	-39
3803.952	-35
3806.602	-29
3809.251	-25
3811.897	-28
3814.542	-31
3817.184	-34
3819.825	-24
3822.463	-45
3825.1	-29
3827.735	-27
3830.367	-36
3832.998	-14
3835.627	-34
3838.253	-21
3840.878	-33
3843.501	-14
3846.122	-26
3848.741	-22
3851.358	-22
3853.973	-38
3856.586	-23
3859.197	-35
3861.806	-28
3864.414	-40
3867.019	-28
3869.622	-20
3872.224	-16
3874.823	1
3877.421	31
3880.016	44
3882.61	86
3885.202	112
3887.792	86
3890.38	41
3892.966	1
3895.55	-26
3898.132	-20
3900.713	-21
3903.291	-30
3905.868	-36
3908.442	-26
3911.015	-34
3913.586	-37
3916.155	-32
3918.722	-38
3921.287	-39
3923.85	-42
3926.411	-33
3928.971	-34
3931.528	-25
3934.084	-31
3936.638	-44
3939.19	-27
3941.74	-28
3944.288	-34
3946.834	-36
3949.378	-25
3951.921	-39
3954.462	-33
3957	-27
3959.537	-14
3962.072	-36
3964.606	-49
3967.137	-32
3969.667	-35
3972.194	-27
3974.72	-30
3977.244	-53
3979.766	-38
3982.286	-40
3984.805	-29
3987.321	-21
3989.836	-20
3992.349	-36
3994.86	-28
3997.369	-40
3999.877	-36
4002.382	-29
4004.886	-24
4007.388	-27
4009.888	-22
4012.386	-21
4014.883	-23
4017.377	-26
4019.87	-28
4022.361	-36
4024.85	-27
4027.338	-28
4029.823	-34
4032.307	-31
4034.789	-25
4037.269	-24
4039.747	-42
4042.224	-25
4044.699	-39
4047.172	-27
4049.643	-24
4052.112	-54
4054.58	-23
4057.046	-41
4059.51	-33
4061.972	-28
4064.432	-51
4066.891	-17
4069.348	-26
4071.803	-24
4074.256	-31
4076.708	-25
4079.158	-29
4081.606	-13
4084.052	-28
4086.497	-26
4088.939	-25
4091.38	-30
4093.819	-23
4096.257	3
4098.693	-6
4101.127	-4
4103.559	5
4105.989	135
4108.418	138
4110.845	120
4113.27	131
4115.694	135
4118.115	132
4120.535	-28
4122.954	-23
4125.37	-18
4127.785	-28
4130.198	-21
4132.609	-24
4135.019	4
4137.427	1
4139.833	3
4142.237	-6
