Data from dark_RamanShift_04.txt Node
Date: Tue Mar 06 11:54:19 GMT+02:00 2018
User: LAB3
Spectrometer: QEPB0276
Trigger mode: 0
Integration Time (sec): 3.000000E1
Scans to average: 1
Electric dark correction enabled: true
Nonlinearity correction enabled: false
Boxcar width: 0
XAxis mode: Raman Shifts
Number of Pixels in Spectrum: 1044
>>>>>Begin Spectral Data<<<<<
160.701	-45.25
166.742	-31.25
172.777	-38.25
178.805	-47.25
184.826	-45.25
190.841	-35.25
196.849	-45.25
202.85	-40.25
208.845	-38.25
214.833	-35.25
220.815	-37.25
226.789	-36.25
232.758	-36.25
238.719	-43.25
244.674	-52.25
250.623	-45.25
256.565	-48.25
262.5	-52.25
268.429	-42.25
274.351	-53.25
280.267	-50.25
286.176	-38.25
292.079	-37.25
297.975	-43.25
303.865	-45.25
309.748	-37.25
315.625	-49.25
321.495	-36.25
327.359	-49.25
333.217	-46.25
339.068	-55.25
344.912	-45.25
350.751	-49.25
356.583	-50.25
362.408	-34.25
368.227	-33.25
374.04	-41.25
379.847	-41.25
385.647	-34.25
391.44	-57.25
397.228	-49.25
403.009	-38.25
408.784	-45.25
414.553	-40.25
420.315	-41.25
426.071	-53.25
431.821	-39.25
437.565	-34.25
443.302	-47.25
449.033	-53.25
454.758	-39.25
460.477	-42.25
466.189	-39.25
471.896	-37.25
477.596	-36.25
483.29	-49.25
488.978	-45.25
494.66	-54.25
500.335	-52.25
506.005	-53.25
511.668	-44.25
517.325	-52.25
522.977	-55.25
528.622	-53.25
534.261	-44.25
539.894	-50.25
545.521	-49.25
551.141	-51.25
556.756	-58.25
562.365	-55.25
567.968	-43.25
573.565	-52.25
579.155	-40.25
584.74	-52.25
590.319	-40.25
595.892	-42.25
601.459	-34.25
607.02	-43.25
612.575	-38.25
618.124	-33.25
623.667	-43.25
629.204	-39.25
634.735	-35.25
640.261	-46.25
645.781	-61.25
651.294	-56.25
656.802	-45.25
662.304	-38.25
667.8	-33.25
673.29	-44.25
678.775	-37.25
684.254	-44.25
689.726	-55.25
695.193	-42.25
700.655	-43.25
706.11	-49.25
711.56	-40.25
717.004	-35.25
722.442	-57.25
727.874	-42.25
733.301	-33.25
738.722	-59.25
744.137	-43.25
749.547	-48.25
754.951	-50.25
760.349	-47.25
765.741	-43.25
771.128	-48.25
776.509	-54.25
781.885	-41.25
787.254	-44.25
792.618	-52.25
797.977	-44.25
803.33	-44.25
808.677	-51.25
814.019	-43.25
819.355	-48.25
824.686	-53.25
830.011	-53.25
835.33	-31.25
840.644	-28.25
845.952	-55.25
851.255	-40.25
856.552	-39.25
861.844	-43.25
867.13	-55.25
872.41	-51.25
877.686	-39.25
882.955	-38.25
888.219	-45.25
893.478	-50.25
898.731	-37.25
903.979	-33.25
909.221	-47.25
914.458	-47.25
919.69	-41.25
924.916	-49.25
930.136	-45.25
935.351	-53.25
940.561	-35.25
945.766	-46.25
950.965	-36.25
956.158	-51.25
961.347	-47.25
966.529	-43.25
971.707	-32.25
976.879	-33.25
982.046	-43.25
987.208	-45.25
992.364	-37.25
997.515	-45.25
1002.66	-38.25
1007.801	-55.25
1012.936	-48.25
1018.066	-66.25
1023.19	-46.25
1028.309	-45.25
1033.423	-41.25
1038.532	-34.25
1043.636	-49.25
1048.734	-46.25
1053.827	-46.25
1058.915	-48.25
1063.998	-38.25
1069.075	-46.25
1074.147	-36.25
1079.214	-60.25
1084.276	-34.25
1089.333	-42.25
1094.385	-34.25
1099.431	-46.25
1104.472	-39.25
1109.509	-49.25
1114.54	-50.25
1119.565	-42.25
1124.586	-35.25
1129.602	-42.25
1134.613	-61.25
1139.618	-43.25
1144.619	-49.25
1149.614	-42.25
1154.604	-46.25
1159.589	-51.25
1164.57	-31.25
1169.545	-29.25
1174.515	-38.25
1179.48	-41.25
1184.44	-35.25
1189.395	-23.25
1194.345	-43.25
1199.29	-33.25
1204.23	-45.25
1209.165	-56.25
1214.095	-33.25
1219.021	-48.25
1223.941	-52.25
1228.856	-44.25
1233.766	-35.25
1238.672	-32.25
1243.572	-35.25
1248.467	-36.25
1253.358	-39.25
1258.244	-46.25
1263.124	-27.25
1268	-28.25
1272.871	-47.25
1277.737	-40.25
1282.599	-42.25
1287.455	-44.25
1292.306	-35.25
1297.153	-59.25
1301.995	-42.25
1306.832	-46.25
1311.664	-41.25
1316.491	-46.25
1321.314	-44.25
1326.132	-44.25
1330.945	-37.25
1335.753	-41.25
1340.556	-38.25
1345.354	-45.25
1350.148	-41.25
1354.937	-43.25
1359.722	-55.25
1364.501	-50.25
1369.276	-39.25
1374.046	-33.25
1378.811	-47.25
1383.572	-39.25
1388.327	-38.25
1393.079	-52.25
1397.825	-50.25
1402.567	-44.25
1407.304	-46.25
1412.036	-47.25
1416.764	-42.25
1421.487	-57.25
1426.205	-50.25
1430.919	-46.25
1435.628	-46.25
1440.333	-58.25
1445.032	-47.25
1449.727	-44.25
1454.418	-37.25
1459.104	-36.25
1463.785	-47.25
1468.462	-33.25
1473.134	-36.25
1477.802	-38.25
1482.465	-59.25
1487.123	-38.25
1491.777	-55.25
1496.426	-58.25
1501.071	-32.25
1505.711	-46.25
1510.347	-35.25
1514.978	-40.25
1519.604	-43.25
1524.226	-33.25
1528.844	-54.25
1533.457	-38.25
1538.065	-38.25
1542.669	-36.25
1547.269	-38.25
1551.864	-35.25
1556.454	-51.25
1561.041	-48.25
1565.622	-48.25
1570.199	-45.25
1574.772	-46.25
1579.34	-43.25
1583.904	-42.25
1588.464	-33.25
1593.019	-29.25
1597.569	-49.25
1602.115	-52.25
1606.657	-50.25
1611.195	-35.25
1615.728	-30.25
1620.256	-44.25
1624.78	-66.25
1629.3	-51.25
1633.816	-42.25
1638.327	-44.25
1642.834	-46.25
1647.336	-48.25
1651.834	-34.25
1656.328	-38.25
1660.817	-46.25
1665.302	-51.25
1669.783	-52.25
1674.259	-43.25
1678.732	-43.25
1683.199	-37.25
1687.663	-53.25
1692.122	-33.25
1696.577	-32.25
1701.028	-26.25
1705.474	-38.25
1709.917	-43.25
1714.355	-44.25
1718.788	-42.25
1723.218	-52.25
1727.643	-53.25
1732.064	-45.25
1736.481	-52.25
1740.893	-37.25
1745.301	-44.25
1749.705	-59.25
1754.105	-33.25
1758.501	-45.25
1762.893	-30.25
1767.28	-55.25
1771.663	-42.25
1776.042	-44.25
1780.417	-49.25
1784.787	-36.25
1789.154	-37.25
1793.516	-42.25
1797.874	-42.25
1802.228	-53.25
1806.578	-63.25
1810.924	-44.25
1815.266	-133.25
1819.603	-35.25
1823.937	-50.25
1828.266	-46.25
1832.591	-41.25
1836.913	-45.25
1841.23	-49.25
1845.543	-50.25
1849.852	-40.25
1854.156	-48.25
1858.457	-43.25
1862.754	-54.25
1867.047	-51.25
1871.335	-37.25
1875.62	-40.25
1879.9	-38.25
1884.177	-52.25
1888.449	-48.25
1892.718	-42.25
1896.982	-31.25
1901.243	-52.25
1905.499	-42.25
1909.752	-44.25
1914	-62.25
1918.245	-36.25
1922.485	-34.25
1926.722	-50.25
1930.954	-48.25
1935.183	-36.25
1939.408	-33.25
1943.628	-37.25
1947.845	-40.25
1952.058	-41.25
1956.267	-52.25
1960.472	-38.25
1964.673	-40.25
1968.87	-39.25
1973.063	-40.25
1977.252	-40.25
1981.438	-42.25
1985.619	-46.25
1989.797	-54.25
1993.971	-48.25
1998.14	-31.25
2002.306	-43.25
2006.469	-36.25
2010.627	-51.25
2014.781	-45.25
2018.932	-53.25
2023.078	-26.25
2027.221	-35.25
2031.36	-43.25
2035.495	-40.25
2039.627	-35.25
2043.754	-33.25
2047.878	-43.25
2051.998	-42.25
2056.114	-37.25
2060.226	-41.25
2064.334	-33.25
2068.439	-31.25
2072.54	-31.25
2076.637	-43.25
2080.73	-42.25
2084.82	-41.25
2088.906	-43.25
2092.988	-45.25
2097.066	-37.25
2101.14	-28.25
2105.211	-33.25
2109.278	-40.25
2113.342	-38.25
2117.401	-46.25
2121.457	-46.25
2125.509	-46.25
2129.558	-34.25
2133.602	-40.25
2137.643	-39.25
2141.681	-41.25
2145.714	-36.25
2149.744	-36.25
2153.77	-42.25
2157.793	-48.25
2161.812	-59.25
2165.827	-60.25
2169.838	-28.25
2173.846	-40.25
2177.851	-46.25
2181.851	-32.25
2185.848	-43.25
2189.841	-36.25
2193.831	-42.25
2197.817	-41.25
2201.799	-37.25
2205.778	-48.25
2209.753	-44.25
2213.725	-50.25
2217.693	-41.25
2221.657	-48.25
2225.618	-33.25
2229.575	-40.25
2233.529	-36.25
2237.479	-34.25
2241.425	-41.25
2245.368	-47.25
2249.307	-34.25
2253.243	-40.25
2257.175	-35.25
2261.104	-41.25
2265.029	-30.25
2268.95	-32.25
2272.868	-37.25
2276.783	-43.25
2280.694	-31.25
2284.601	-34.25
2288.505	-34.25
2292.405	-28.25
2296.302	-53.25
2300.195	-38.25
2304.085	-61.25
2307.971	-32.25
2311.854	-57.25
2315.734	-41.25
2319.609	-34.25
2323.482	-54.25
2327.351	-40.25
2331.216	-38.25
2335.078	-31.25
2338.937	-34.25
2342.792	-46.25
2346.643	-47.25
2350.492	-31.25
2354.336	-39.25
2358.178	-35.25
2362.015	-39.25
2365.85	-44.25
2369.681	-41.25
2373.508	-35.25
2377.333	-33.25
2381.153	-32.25
2384.971	-39.25
2388.785	-37.25
2392.595	-45.25
2396.402	-43.25
2400.206	-64.25
2404.007	-45.25
2407.804	-39.25
2411.597	-37.25
2415.388	-43.25
2419.174	-48.25
2422.958	-42.25
2426.738	-44.25
2430.515	-37.25
2434.289	-48.25
2438.059	-49.25
2441.825	-45.25
2445.589	-33.25
2449.349	-54.25
2453.106	-36.25
2456.859	-37.25
2460.61	-37.25
2464.356	-49.25
2468.1	-45.25
2471.84	-47.25
2475.577	-47.25
2479.311	-44.25
2483.041	-38.25
2486.768	-26.25
2490.492	-32.25
2494.213	-44.25
2497.93	-52.25
2501.644	-53.25
2505.355	-41.25
2509.062	-41.25
2512.766	-39.25
2516.467	-46.25
2520.165	-46.25
2523.859	-54.25
2527.551	-17.25
2531.239	-52.25
2534.923	-41.25
2538.605	-43.25
2542.283	-39.25
2545.958	-34.25
2549.63	-26.25
2553.299	-28.25
2556.964	-48.25
2560.626	-41.25
2564.285	-37.25
2567.941	-55.25
2571.594	-49.25
2575.243	-36.25
2578.89	-43.25
2582.533	-40.25
2586.173	-40.25
2589.809	-38.25
2593.443	-62.25
2597.073	-37.25
2600.701	-37.25
2604.325	-44.25
2607.946	-47.25
2611.564	-31.25
2615.178	-40.25
2618.79	-43.25
2622.398	-50.25
2626.004	-38.25
2629.606	-37.25
2633.205	-48.25
2636.801	-40.25
2640.394	-42.25
2643.983	-44.25
2647.57	-44.25
2651.153	-41.25
2654.734	-40.25
2658.311	-57.25
2661.885	-53.25
2665.456	-41.25
2669.025	-45.25
2672.589	-49.25
2676.151	-30.25
2679.71	-32.25
2683.266	-40.25
2686.819	-51.25
2690.368	-40.25
2693.915	-34.25
2697.458	-43.25
2700.999	-35.25
2704.536	-35.25
2708.071	-37.25
2711.602	-34.25
2715.13	-33.25
2718.656	-52.25
2722.178	-34.25
2725.697	-53.25
2729.214	-44.25
2732.727	-39.25
2736.237	-52.25
2739.744	-43.25
2743.249	-48.25
2746.75	-35.25
2750.248	-42.25
2753.743	-38.25
2757.236	-35.25
2760.725	-33.25
2764.211	-59.25
2767.695	-36.25
2771.175	-31.25
2774.652	-37.25
2778.127	-41.25
2781.598	-40.25
2785.067	-35.25
2788.532	-48.25
2791.995	-39.25
2795.455	-48.25
2798.911	-31.25
2802.365	-45.25
2805.816	-39.25
2809.264	-34.25
2812.709	-43.25
2816.151	-33.25
2819.59	-49.25
2823.026	-45.25
2826.46	-46.25
2829.89	-34.25
2833.318	-62.25
2836.742	-48.25
2840.164	-43.25
2843.583	-44.25
2846.999	-50.25
2850.412	-41.25
2853.822	-51.25
2857.229	-36.25
2860.634	-40.25
2864.035	-60.25
2867.434	-41.25
2870.83	-40.25
2874.223	-50.25
2877.613	-52.25
2881	-58.25
2884.385	-51.25
2887.766	-48.25
2891.145	-50.25
2894.521	-51.25
2897.894	-58.25
2901.264	-39.25
2904.631	-44.25
2907.996	-41.25
2911.358	-35.25
2914.717	-38.25
2918.073	-47.25
2921.426	-48.25
2924.777	-64.25
2928.124	-48.25
2931.469	-33.25
2934.811	-61.25
2938.15	-31.25
2941.487	-47.25
2944.821	-31.25
2948.152	-47.25
2951.48	-36.25
2954.805	-49.25
2958.128	-32.25
2961.447	-42.25
2964.765	-30.25
2968.079	-37.25
2971.39	-39.25
2974.699	-35.25
2978.005	-40.25
2981.308	-41.25
2984.609	-47.25
2987.907	-35.25
2991.202	-31.25
2994.494	-51.25
2997.784	-42.25
3001.07	-38.25
3004.355	-50.25
3007.636	-44.25
3010.915	-45.25
3014.191	-45.25
3017.464	-41.25
3020.734	-42.25
3024.002	-41.25
3027.267	-42.25
3030.53	-43.25
3033.789	-41.25
3037.046	-41.25
3040.301	-53.25
3043.552	-45.25
3046.801	-40.25
3050.048	-35.25
3053.291	-23.25
3056.532	-41.25
3059.771	-56.25
3063.006	-37.25
3066.239	-40.25
3069.469	-43.25
3072.697	-49.25
3075.922	-50.25
3079.144	-49.25
3082.364	-29.25
3085.581	-49.25
3088.795	-30.25
3092.007	-37.25
3095.216	-32.25
3098.423	-41.25
3101.627	-61.25
3104.828	-41.25
3108.026	-45.25
3111.222	-24.25
3114.416	-30.25
3117.607	-37.25
3120.795	-37.25
3123.98	-39.25
3127.163	-52.25
3130.344	-34.25
3133.521	-51.25
3136.696	-33.25
3139.869	-45.25
3143.039	-56.25
3146.206	-27.25
3149.371	-37.25
3152.533	-44.25
3155.693	-51.25
3158.85	-40.25
3162.005	-37.25
3165.157	-45.25
3168.306	-45.25
3171.453	-30.25
3174.597	-48.25
3177.739	-51.25
3180.878	-43.25
3184.014	-34.25
3187.149	-43.25
3190.28	-40.25
3193.409	-35.25
3196.536	-32.25
3199.659	-33.25
3202.781	-36.25
3205.9	-52.25
3209.016	-40.25
3212.13	-45.25
3215.241	-46.25
3218.35	-48.25
3221.456	-49.25
3224.56	-53.25
3227.661	-45.25
3230.76	-48.25
3233.856	-49.25
3236.95	-39.25
3240.041	-53.25
3243.13	-31.25
3246.216	-44.25
3249.3	-34.25
3252.382	-41.25
3255.46	-46.25
3258.537	-91.25
3261.611	-51.25
3264.682	-42.25
3267.751	-43.25
3270.818	-57.25
3273.882	-34.25
3276.943	-46.25
3280.002	-28.25
3283.059	-50.25
3286.113	-43.25
3289.165	-47.25
3292.214	-51.25
3295.261	-27.25
3298.306	-55.25
3301.348	-39.25
3304.387	-52.25
3307.425	-31.25
3310.459	-41.25
3313.492	-31.25
3316.521	-38.25
3319.549	-28.25
3322.574	-30.25
3325.597	-40.25
3328.617	-45.25
3331.635	-41.25
3334.65	-55.25
3337.663	-38.25
3340.674	-43.25
3343.682	-41.25
3346.688	-36.25
3349.691	-45.25
3352.692	-43.25
3355.691	-37.25
3358.687	-40.25
3361.681	-36.25
3364.673	-38.25
3367.662	-34.25
3370.649	-35.25
3373.633	-51.25
3376.615	-34.25
3379.595	-56.25
3382.572	-42.25
3385.547	-48.25
3388.52	-48.25
3391.49	-45.25
3394.458	-44.25
3397.424	-40.25
3400.387	-49.25
3403.348	-44.25
3406.307	-41.25
3409.263	-45.25
3412.217	-34.25
3415.168	-40.25
3418.118	-24.25
3421.065	-42.25
3424.009	-27.25
3426.951	-42.25
3429.891	-40.25
3432.829	-42.25
3435.764	-41.25
3438.697	-45.25
3441.628	-29.25
3444.557	-48.25
3447.483	-51.25
3450.407	-35.25
3453.328	-44.25
3456.247	-48.25
3459.164	-44.25
3462.079	-29.25
3464.991	-38.25
3467.902	-40.25
3470.809	-37.25
3473.715	-27.25
3476.618	-41.25
3479.519	-34.25
3482.418	-54.25
3485.315	-45.25
3488.209	-47.25
3491.101	-38.25
3493.99	-52.25
3496.878	-42.25
3499.763	-38.25
3502.646	-41.25
3505.527	-48.25
3508.405	-40.25
3511.281	-53.25
3514.155	-38.25
3517.027	-42.25
3519.897	-53.25
3522.764	-40.25
3525.629	-58.25
3528.492	-41.25
3531.352	-36.25
3534.211	-35.25
3537.067	-45.25
3539.921	-43.25
3542.773	-32.25
3545.622	-42.25
3548.469	-55.25
3551.315	-51.25
3554.157	-40.25
3556.998	-46.25
3559.837	-44.25
3562.673	-38.25
3565.507	-47.25
3568.339	-50.25
3571.169	-41.25
3573.996	-42.25
3576.822	-59.25
3579.645	-56.25
3582.466	-48.25
3585.285	-37.25
3588.101	-39.25
3590.916	-45.25
3593.728	-39.25
3596.538	-43.25
3599.346	-36.25
3602.152	-47.25
3604.956	-42.25
3607.757	-39.25
3610.556	-57.25
3613.354	-36.25
3616.149	-40.25
3618.942	-36.25
3621.732	-32.25
3624.521	-49.25
3627.307	-55.25
3630.092	-45.25
3632.874	-34.25
3635.654	-36.25
3638.432	-45.25
3641.208	-47.25
3643.982	-41.25
3646.753	-31.25
3649.523	-66.25
3652.29	-40.25
3655.055	-35.25
3657.818	-35.25
3660.579	-40.25
3663.338	-51.25
3666.095	-38.25
3668.849	-60.25
3671.602	-30.25
3674.352	-48.25
3677.101	-28.25
3679.847	-29.25
3682.591	-43.25
3685.333	-50.25
3688.073	-34.25
3690.811	-45.25
3693.547	-46.25
3696.281	-50.25
3699.013	-33.25
3701.742	-42.25
3704.47	-49.25
3707.195	-30.25
3709.919	-31.25
3712.64	-35.25
3715.359	-52.25
3718.076	-23.25
3720.792	-38.25
3723.505	-33.25
3726.216	-27.25
3728.925	-36.25
3731.632	-43.25
3734.336	-36.25
3737.039	-35.25
3739.74	-38.25
3742.439	-59.25
3745.136	-29.25
3747.83	-28.25
3750.523	-32.25
3753.213	-96.25
3755.902	-39.25
3758.589	-56.25
3761.273	-44.25
3763.956	-29.25
3766.636	-49.25
3769.315	-27.25
3771.991	-36.25
3774.665	-42.25
3777.338	-39.25
3780.008	-48.25
3782.677	-42.25
3785.343	-57.25
3788.007	-57.25
3790.67	-30.25
3793.33	-52.25
3795.989	-41.25
3798.645	-35.25
3801.299	-51.25
3803.952	-51.25
3806.602	-42.25
3809.251	-32.25
3811.897	-41.25
3814.542	-34.25
3817.184	-39.25
3819.825	-39.25
3822.463	-51.25
3825.1	-38.25
3827.735	-31.25
3830.367	-43.25
3832.998	-25.25
3835.627	-41.25
3838.253	-29.25
3840.878	-38.25
3843.501	-21.25
3846.122	-35.25
3848.741	-37.25
3851.358	-32.25
3853.973	-44.25
3856.586	-30.25
3859.197	-43.25
3861.806	-35.25
3864.414	-52.25
3867.019	-41.25
3869.622	-35.25
3872.224	-42.25
3874.823	-48.25
3877.421	-39.25
3880.016	-53.25
3882.61	-42.25
3885.202	-41.25
3887.792	-36.25
3890.38	-31.25
3892.966	-49.25
3895.55	-53.25
3898.132	-34.25
3900.713	-29.25
3903.291	-40.25
3905.868	-45.25
3908.442	-34.25
3911.015	-37.25
3913.586	-43.25
3916.155	-41.25
3918.722	-50.25
3921.287	-44.25
3923.85	-54.25
3926.411	-42.25
3928.971	-41.25
3931.528	-34.25
3934.084	-45.25
3936.638	-50.25
3939.19	-36.25
3941.74	-36.25
3944.288	-45.25
3946.834	-44.25
3949.378	-29.25
3951.921	-45.25
3954.462	-38.25
3957	-40.25
3959.537	-30.25
3962.072	-47.25
3964.606	-52.25
3967.137	-37.25
3969.667	-43.25
3972.194	-33.25
3974.72	-41.25
3977.244	-62.25
3979.766	-47.25
3982.286	-42.25
3984.805	-35.25
3987.321	-29.25
3989.836	-31.25
3992.349	-38.25
3994.86	-34.25
3997.369	-44.25
3999.877	-38.25
4002.382	-40.25
4004.886	-34.25
4007.388	-38.25
4009.888	-25.25
4012.386	-25.25
4014.883	-32.25
4017.377	-40.25
4019.87	-35.25
4022.361	-45.25
4024.85	-36.25
4027.338	-36.25
4029.823	-42.25
4032.307	-40.25
4034.789	-38.25
4037.269	-33.25
4039.747	-54.25
4042.224	-32.25
4044.699	-48.25
4047.172	-44.25
4049.643	-34.25
4052.112	-63.25
4054.58	-35.25
4057.046	-54.25
4059.51	-40.25
4061.972	-38.25
4064.432	-56.25
4066.891	-27.25
4069.348	-36.25
4071.803	-36.25
4074.256	-42.25
4076.708	-33.25
4079.158	-35.25
4081.606	-28.25
4084.052	-34.25
4086.497	-33.25
4088.939	-36.25
4091.38	-35.25
4093.819	-33.25
4096.257	-1.25
4098.693	-7.25
4101.127	-5.25
4103.559	-3.25
4105.989	-47.25
4108.418	-36.25
4110.845	-51.25
4113.27	-37.25
4115.694	-32.25
4118.115	-47.25
4120.535	-36.25
4122.954	-29.25
4125.37	-25.25
4127.785	-34.25
4130.198	-28.25
4132.609	-31.25
4135.019	8.75
4137.427	2.75
4139.833	6.75
4142.237	-1.25
