##TITLE=C106_R5
##FORMAT=SPECTACLE-ASCII V-1.2
##DATA TYPE=ULTRAVIOLET SPECTRUM
##SECOND TYPE=ULTRAVIOLET SPECTRUM
##DATE=05/28/18
##TIME=15:12:16
##SPECTROMETER/DATA SYSTEM=SPECTACLE
##XUNITS=NM EM
##YUNITS=ENERGY
##YFACTOR=1
##FIRSTX=220
##LASTX=410
##NPOINTS=96
##3DDATA=Equidistant
##ZUNITS=NM EX
##FIRSTZ=210
##LASTZ=400
##ZPOINTS=39
##XYDATA=(Y..Y)
##ZVALUE=210
336.515903
309.143662
194.267631
97.214580
61.031580
52.834749
57.086945
62.252879
69.127679
73.454976
77.343583
82.539916
87.933540
87.252855
92.525482
97.078681
98.633766
104.959607
110.773444
123.448968
128.078461
143.126845
155.204535
171.175003
183.480978
206.213593
218.685865
234.504938
261.770487
274.283886
299.887657
320.169926
356.887579
384.372473
429.967642
461.055636
508.847833
537.688732
592.638850
624.827743
654.966831
696.390867
732.190013
763.083696
784.651637
823.051929
854.398012
883.410573
895.646811
918.049812
928.571820
958.340764
963.804722
957.340002
976.435542
981.251597
974.583030
972.055793
965.332985
959.225893
951.246619
948.779583
955.535769
979.577899
1010.366678
1016.005874
1016.005874
1016.005874
1016.005874
1016.005874
1016.005874
1016.005874
1016.005874
1016.005874
1016.005874
1016.005874
1016.005874
1016.005874
1016.005874
1016.005874
1016.005874
1016.005874
914.471745
796.365738
676.178932
621.928573
567.635894
539.165735
526.240468
522.029996
556.296706
593.540668
686.039925
776.425004
960.792899
1016.005874
##ZVALUE=215
1016.005874
1016.005874
1016.005874
922.514796
582.226515
293.625593
168.577433
98.314881
95.842481
93.629956
99.500418
97.598433
95.574856
99.327564
99.443793
97.574592
108.027458
110.167861
116.595626
128.769875
136.698484
148.084760
160.382986
176.299810
193.747878
210.326910
224.751830
240.899920
263.404846
290.607810
302.869678
338.889956
381.358862
424.764752
463.838577
514.258742
571.288466
625.560880
680.551529
751.898885
791.251659
851.305723
904.781818
963.238478
1004.152894
1016.005874
1016.005874
1016.005874
1016.005874
1016.005874
1016.005874
1016.005874
1016.005874
1016.005874
1016.005874
1016.005874
1016.005874
1016.005874
1016.005874
1016.005874
1016.005874
1016.005874
1016.005874
1016.005874
1016.005874
1016.005874
1016.005874
1016.005874
1016.005874
1016.005874
1016.005874
1016.005874
1016.005874
1016.005874
1016.005874
1016.005874
1016.005874
1016.005874
1016.005874
1016.005874
1016.005874
1011.501551
908.208489
790.358782
722.211599
642.509460
607.205629
573.946834
553.948879
530.619621
505.495667
498.202443
488.172770
508.560538
538.698435
618.683696
##ZVALUE=220
1016.005874
1016.005874
1016.005874
1016.005874
1016.005874
1016.005874
1016.005874
816.563964
409.721732
211.706758
123.822689
118.773580
113.874674
113.169551
109.015703
105.298758
104.716420
106.098652
111.156702
118.324757
123.063922
135.618448
143.258572
155.597925
169.679523
182.826519
200.156569
213.135481
230.487585
244.112611
276.577473
301.162004
348.586440
389.596820
461.643934
515.471697
607.256889
673.085451
760.997534
846.096873
910.495520
1006.226540
1016.005874
1016.005874
1016.005874
1016.005874
1016.005874
1016.005874
1016.005874
1016.005874
1016.005874
1016.005874
1016.005874
1016.005874
1016.005874
1016.005874
1016.005874
1016.005874
1016.005874
1016.005874
1016.005874
1016.005874
1016.005874
1016.005874
1016.005874
1016.005874
1016.005874
1016.005874
1016.005874
1016.005874
1016.005874
1016.005874
1016.005874
1016.005874
1016.005874
1016.005874
1016.005874
1016.005874
1016.005874
1016.005874
1016.005874
1016.005874
921.614766
827.980638
748.406649
689.396858
631.369948
605.217814
562.990904
533.250570
518.846512
502.609015
476.046801
468.426943
449.990630
434.381962
##ZVALUE=225
1016.005874
1016.005874
1016.005874
1016.005874
1016.005874
1016.005874
1016.005874
1016.005874
1016.005874
1016.005874
894.853473
375.352502
160.384774
142.423511
137.002468
131.653547
125.102997
124.792457
118.471980
120.407939
120.112896
129.451752
135.111809
142.191648
153.406858
166.463852
178.214908
193.370581
201.178789
226.794481
249.212980
287.132859
338.739753
402.229428
470.001698
579.044819
651.488900
777.169466
877.216458
1000.242829
1016.005874
1016.005874
1016.005874
1016.005874
1016.005874
1016.005874
1016.005874
1016.005874
1016.005874
1016.005874
1016.005874
1016.005874
1016.005874
1016.005874
1016.005874
1016.005874
1016.005874
1016.005874
1016.005874
1016.005874
1016.005874
1016.005874
1016.005874
1016.005874
1016.005874
1016.005874
1016.005874
1016.005874
1016.005874
1016.005874
1016.005874
1016.005874
1016.005874
1016.005874
1016.005874
1016.005874
1016.005874
1016.005874
1016.005874
1016.005874
1016.005874
1016.005874
947.255492
849.602818
783.994794
732.460022
688.644648
649.878979
608.497858
576.348901
553.885698
524.264574
503.324866
479.805470
460.096598
451.182723
##ZVALUE=230
1016.005874
1016.005874
1016.005874
1016.005874
1016.005874
1016.005874
1016.005874
1016.005874
1016.005874
1016.005874
1016.005874
1016.005874
1016.005874
770.933032
270.388722
177.882910
166.021585
159.413815
156.349540
148.407817
139.792562
136.362910
137.408972
144.865513
148.243904
155.937672
164.591670
177.519917
186.608434
204.684734
223.985910
269.858837
312.196612
396.435857
471.527576
582.989454
683.061481
825.257897
935.297608
1016.005874
1016.005874
1016.005874
1016.005874
1016.005874
1016.005874
1016.005874
1016.005874
1016.005874
1016.005874
1016.005874
1016.005874
1016.005874
1016.005874
1016.005874
1016.005874
1016.005874
1016.005874
1016.005874
1016.005874
1016.005874
1016.005874
1016.005874
1016.005874
1016.005874
1016.005874
1016.005874
1016.005874
1016.005874
1016.005874
1016.005874
1016.005874
1016.005874
1016.005874
1016.005874
1016.005874
1016.005874
1016.005874
1016.005874
1016.005874
1016.005874
1016.005874
1005.677581
936.260819
846.026540
793.530941
726.796985
686.333776
648.052692
619.964600
575.863719
551.486015
517.320633
488.607883
477.627516
456.166863
441.761613
##ZVALUE=235
913.114548
1002.226472
1016.005874
1016.005874
1016.005874
1016.005874
1016.005874
1016.005874
1016.005874
1016.005874
1016.005874
1016.005874
1016.005874
1016.005874
1016.005874
1016.005874
465.332866
233.468413
195.426941
190.664530
188.085437
180.839896
171.435475
164.081454
156.036615
155.314803
164.875984
166.442990
182.217956
186.820626
231.899619
240.219831
326.979756
330.691934
403.522849
471.174717
578.101873
657.411814
823.529959
862.205029
975.219607
1016.005874
1016.005874
1016.005874
1016.005874
1016.005874
1016.005874
1016.005874
1016.005874
1016.005874
1016.005874
1016.005874
1016.005874
1016.005874
1016.005874
1016.005874
1016.005874
1016.005874
1016.005874
1016.005874
1016.005874
1016.005874
1016.005874
1016.005874
1016.005874
1016.005874
1016.005874
1016.005874
1016.005874
1016.005874
1016.005874
1016.005874
1016.005874
1016.005874
1016.005874
1016.005874
1016.005874
1016.005874
1016.005874
1005.438566
902.869701
820.042491
737.243891
681.373477
633.463860
598.086715
560.658574
537.370443
501.870513
483.910441
458.735824
436.097980
423.851609
414.228439
397.343636
386.228561
##ZVALUE=240
42.278767
55.994987
212.334394
948.410034
1016.005874
1016.005874
1016.005874
1016.005874
1016.005874
1016.005874
1016.005874
1016.005874
1016.005874
1016.005874
1016.005874
1016.005874
1016.005874
1016.005874
959.881544
313.827991
220.233798
214.360952
207.739472
204.342604
191.702843
182.537436
174.721479
171.245933
170.047879
175.842643
184.010863
198.209882
226.077437
252.348781
296.436548
328.943729
385.992527
431.155562
486.518741
535.143018
586.781502
652.990937
696.612000
762.139559
811.935663
881.318450
920.544863
969.061852
1008.643508
1016.005874
1016.005874
1016.005874
1016.005874
1016.005874
1016.005874
1016.005874
1016.005874
1016.005874
1016.005874
1016.005874
1016.005874
1016.005874
1016.005874
1016.005874
1016.005874
1016.005874
1016.005874
1016.005874
1016.005874
1016.005874
1016.005874
1016.005874
1016.005874
1016.005874
1016.005874
1016.005874
941.777825
859.732032
759.713650
691.538453
610.823631
554.049015
509.441495
480.352640
445.216894
424.534678
398.091674
389.889479
375.193954
366.473794
346.755981
340.835452
326.020718
327.070951
316.357613
315.761566
##ZVALUE=245
26.461482
26.181936
29.867887
39.369464
116.935372
643.080473
1016.005874
1016.005874
1016.005874
1016.005874
1016.005874
1016.005874
1016.005874
1016.005874
1016.005874
1016.005874
1016.005874
1016.005874
1016.005874
1016.005874
1016.005874
480.176806
242.265463
220.298767
223.383904
217.540860
212.526917
202.910900
196.319818
184.151530
183.845758
182.730556
188.515782
205.811858
220.129490
242.057443
263.331532
297.839642
313.719511
351.672769
378.682613
413.503647
442.592502
477.817655
505.021811
545.100570
575.826764
609.481931
632.313490
664.935708
690.388680
717.103481
730.092525
745.533705
759.661794
766.021609
765.500665
765.562654
765.559673
753.700733
751.372576
736.445785
722.729564
713.440776
703.302026
702.748895
712.442994
727.710724
751.295686
783.340931
805.560946
826.620460
830.031633
814.275742
785.552859
726.806521
675.477982
606.837869
551.653504
489.802957
447.422862
397.772789
368.352532
341.801643
330.068469
312.539935
302.456617
295.869708
291.816592
284.786820
274.485946
270.816684
264.610648
264.315605
261.349678
261.268616
##ZVALUE=250
21.320581
21.008849
22.280812
26.240945
28.096437
34.037828
54.418445
328.667760
958.706737
1016.005874
1016.005874
1016.005874
1016.005874
1016.005874
1016.005874
1016.005874
1016.005874
1016.005874
1016.005874
1016.005874
1016.005874
1016.005874
1016.005874
853.720903
326.470733
225.404501
231.687427
232.732892
230.835676
227.837563
216.960907
210.253596
203.357935
202.944875
212.189555
222.327709
240.745544
257.513523
289.386511
309.836864
332.081914
369.655490
393.688679
431.052446
460.291505
497.335792
526.456833
560.879707
584.617853
609.267950
643.242598
661.005974
684.072971
700.421929
710.475445
717.520714
719.530582
720.130801
715.716481
714.780688
703.701973
696.759820
685.101748
670.944452
660.092831
660.811663
665.854812
669.636726
691.725016
704.009533
729.497671
736.469626
738.127828
721.740723
689.376593
659.257770
592.840910
541.006923
479.375720
431.920886
386.211872
362.381935
329.952836
314.010978
293.553472
281.774998
271.295905
264.819860
257.722735
251.160860
246.754885
240.285993
238.507986
237.479806
233.073831
234.400630
##ZVALUE=255
17.861724
18.168688
19.067526
21.140575
22.926927
26.264787
29.056668
34.588575
41.448474
141.765475
561.876893
1016.005874
1016.005874
1016.005874
1016.005874
1016.005874
1016.005874
1016.005874
1016.005874
1016.005874
1016.005874
1016.005874
1016.005874
1016.005874
1016.005874
1016.005874
672.121644
250.304937
232.666731
243.404508
247.858763
249.895453
254.147649
253.556967
253.281593
263.267756
271.003842
295.395851
313.493013
350.276828
379.952788
422.368646
456.476808
501.985550
539.000630
587.454438
619.844794
665.084720
701.347589
742.477775
770.096779
806.223750
822.923779
849.331021
859.926939
872.537494
872.413516
877.335668
874.376893
861.016512
852.491856
835.061669
817.606449
796.974897
788.550973
774.860978
761.656761
762.463808
760.309696
769.688487
769.798756
759.452581
750.967860
720.340014
687.263608
634.970665
586.793423
533.701777
489.731431
435.955524
403.583646
366.834998
342.839956
320.532918
304.135680
287.232995
277.390480
264.975429
258.278847
247.905850
241.890550
235.932469
229.283571
228.042006
223.523974
221.305490
##ZVALUE=260
17.053485
16.814470
18.252730
19.404888
20.106435
22.435784
24.926662
27.266741
31.191707
34.862757
38.860440
68.016648
246.725678
1008.606553
1016.005874
1016.005874
1016.005874
1016.005874
1016.005874
1016.005874
1016.005874
1016.005874
1016.005874
1016.005874
1016.005874
1016.005874
1016.005874
1016.005874
1016.005874
460.031629
251.255631
256.236792
273.229480
304.080844
318.861008
344.016552
360.893607
385.241508
409.658551
446.878672
481.122732
528.072715
576.910973
642.170906
692.655444
758.180022
803.135633
872.218013
913.769007
973.524451
1011.533737
1016.005874
1016.005874
1016.005874
1016.005874
1016.005874
1016.005874
1016.005874
1016.005874
1016.005874
1016.005874
1016.005874
1016.005874
1016.005874
1015.434861
988.231897
970.703959
948.979855
939.268470
922.042727
908.798575
885.033607
862.124562
815.086961
775.294900
715.209842
665.443540
595.476627
551.854968
495.249629
457.847714
418.957472
392.865539
367.375016
348.160863
323.925614
308.722854
292.549729
279.455781
266.808867
254.926682
245.455503
238.585472
233.832598
225.330591
222.637653
##ZVALUE=265
16.961694
16.955733
18.217564
19.465685
19.875765
21.336675
23.283958
25.201440
27.093887
29.226542
33.240914
35.938621
40.139556
47.858357
107.053518
658.005476
1016.005874
1016.005874
1016.005874
1016.005874
1016.005874
1016.005874
1016.005874
1016.005874
1016.005874
1016.005874
1016.005874
1016.005874
1016.005874
1016.005874
1016.005874
898.338556
368.219018
311.402678
348.073840
407.729745
450.421572
508.041978
549.357533
606.755018
648.365021
707.731843
762.175918
840.920806
899.721980
984.509587
1016.005874
1016.005874
1016.005874
1016.005874
1016.005874
1016.005874
1016.005874
1016.005874
1016.005874
1016.005874
1016.005874
1016.005874
1016.005874
1016.005874
1016.005874
1016.005874
1016.005874
1016.005874
1016.005874
1016.005874
1016.005874
1016.005874
1016.005874
1016.005874
1016.005874
1016.005874
1016.005874
981.564522
928.722620
848.039985
790.347457
714.832544
661.954880
592.316985
547.909737
497.853756
466.684699
435.406566
410.154462
380.243659
356.866717
336.099863
321.618915
299.119949
285.623670
272.246003
262.637734
249.979496
245.743990
237.963796
##ZVALUE=270
17.306805
17.493963
17.787814
18.624663
19.652843
19.995570
21.854639
23.520589
24.929643
25.939941
28.689504
30.587912
33.906698
36.416650
41.575432
45.104623
68.304539
228.727460
809.168816
1016.005874
1016.005874
1016.005874
1016.005874
1016.005874
1016.005874
1016.005874
1016.005874
1016.005874
1016.005874
1016.005874
1016.005874
1016.005874
1016.005874
1016.005874
717.103481
447.371006
499.702692
597.270727
672.845840
772.102475
847.450495
936.513543
1002.416015
1016.005874
1016.005874
1016.005874
1016.005874
1016.005874
1016.005874
1016.005874
1016.005874
1016.005874
1016.005874
1016.005874
1016.005874
1016.005874
1016.005874
1016.005874
1016.005874
1016.005874
1016.005874
1016.005874
1016.005874
1016.005874
1016.005874
1016.005874
1016.005874
1016.005874
1016.005874
1016.005874
1016.005874
1016.005874
1016.005874
1016.005874
1016.005874
993.343592
924.988985
839.782953
779.052973
704.250932
655.908585
593.171716
554.582477
509.711504
479.743481
440.886617
417.228937
388.617516
369.280577
342.965722
323.227644
302.116871
290.907621
274.729729
267.316699
258.976817
##ZVALUE=275
17.910600
17.587543
18.421412
19.093752
19.221902
20.304918
21.493435
22.077560
23.985505
25.301576
26.760697
28.099418
29.495955
32.301545
34.198761
38.360953
40.747523
46.187639
52.698851
122.825503
533.353686
1015.997529
1015.997529
1015.997529
1015.997529
1015.997529
1015.997529
1015.997529
1015.997529
1015.997529
1015.997529
1015.997529
1015.997529
1015.997529
1015.997529
1015.997529
1015.997529
725.713968
722.938776
845.783949
942.038894
1015.997529
1015.997529
1015.997529
1015.997529
1015.997529
1015.997529
1015.997529
1015.997529
1015.997529
1015.997529
1015.997529
1015.997529
1015.997529
1015.997529
1015.997529
1015.997529
1015.997529
1015.997529
1015.997529
1015.997529
1015.997529
1015.997529
1015.997529
1015.997529
1015.997529
1015.997529
1015.997529
1015.997529
1015.997529
1015.997529
1015.997529
1015.997529
1015.997529
1015.997529
1015.997529
1015.997529
948.506594
878.006816
795.598030
733.923912
666.050911
624.286532
576.201677
539.494753
496.922731
465.833545
428.650975
406.023860
374.957919
355.516672
328.060985
314.580798
296.793580
288.075805
275.890827
##ZVALUE=280
18.539429
18.275976
18.216968
19.280910
19.855499
20.434856
21.369457
22.594929
23.065805
24.339557
25.725961
26.920438
28.461814
29.914975
31.607747
32.871962
36.006570
38.843751
43.322444
48.125982
56.969523
71.430802
401.383638
1016.005874
1016.005874
1016.005874
1016.005874
1016.005874
1016.005874
1016.005874
1016.005874
1016.005874
1016.005874
1016.005874
1016.005874
1016.005874
1016.005874
1016.005874
1016.005874
1016.005874
947.436690
1016.005874
1016.005874
1016.005874
1016.005874
1016.005874
1016.005874
1016.005874
1016.005874
1016.005874
1016.005874
1016.005874
1016.005874
1016.005874
1016.005874
1016.005874
1016.005874
1016.005874
1016.005874
1016.005874
1016.005874
1016.005874
1016.005874
1016.005874
1016.005874
1016.005874
1016.005874
1016.005874
1016.005874
1016.005874
1016.005874
1016.005874
1016.005874
1016.005874
1016.005874
1016.005874
1016.005874
973.090529
907.679796
820.752978
764.458776
696.781874
650.587678
595.016479
559.269786
513.889790
481.652617
445.114970
419.173837
386.834741
362.587571
337.256789
322.634578
304.507613
290.232897
278.001428
##ZVALUE=285
18.363595
18.763542
19.282699
20.108819
20.201802
21.092892
21.801591
22.390485
23.320913
24.829507
25.034547
26.392937
27.405620
28.558969
29.875636
31.630993
33.131838
35.452843
37.736893
42.725801
45.095682
49.875975
58.084726
67.477822
165.618658
654.057860
1016.075015
1016.075015
1016.075015
1016.075015
1016.075015
1016.075015
1016.075015
1016.075015
1016.075015
1016.075015
1016.075015
1016.075015
1016.075015
1016.075015
1016.075015
1016.075015
1016.075015
1016.075015
1016.075015
1016.075015
1016.075015
1016.075015
1016.075015
1016.075015
1016.075015
1016.075015
1016.075015
1016.075015
1016.075015
1016.075015
1016.075015
1016.075015
1016.075015
1016.075015
1016.075015
1016.075015
1016.075015
1016.075015
1016.075015
1016.075015
1016.075015
1016.075015
1016.075015
1016.075015
1016.075015
1016.075015
1016.075015
1016.075015
1016.075015
1016.075015
987.772942
903.642774
837.392807
763.894916
711.342692
648.291707
607.929826
560.563803
528.971553
484.653711
454.117656
418.888927
393.333435
365.478992
342.815518
316.998959
302.967429
284.586549
271.717906
258.876681
##ZVALUE=290
18.845797
18.973947
19.560456
20.106435
20.527840
20.690560
21.505952
22.376776
22.918582
24.328828
24.842620
25.453568
26.193857
27.221441
29.022694
29.295683
30.750632
32.708645
34.516454
37.253499
39.579868
42.861700
48.657656
53.693652
60.905814
69.566965
83.029866
326.824784
996.537805
1016.005874
1016.005874
1016.005874
1016.005874
1016.005874
1016.005874
1016.005874
1016.005874
1016.005874
1016.005874
1016.005874
1016.005874
1016.005874
1016.005874
1016.005874
1016.005874
1014.426947
1016.005874
1016.005874
1016.005874
1016.005874
1016.005874
1016.005874
1016.005874
1016.005874
1016.005874
1016.005874
1016.005874
1016.005874
1016.005874
1016.005874
1016.005874
1016.005874
1016.005874
1016.005874
1016.005874
1016.005874
1016.005874
1016.005874
1016.005874
1016.005874
1016.005874
1016.005874
1016.005874
970.642567
914.492607
836.020708
783.460736
715.029836
669.433475
609.164834
568.832755
521.705747
490.175486
451.359749
425.243974
392.517447
369.976759
344.023705
324.687958
301.829576
284.838676
265.974998
255.352855
241.089463
229.882002
221.542716
##ZVALUE=295
18.370748
18.920898
19.041896
19.472837
19.930601
20.515919
20.882487
21.939874
22.607446
23.039579
24.030805
24.734735
25.233626
25.813580
27.026534
28.000474
28.963685
30.290484
31.611919
33.519864
35.287738
38.580894
41.099787
44.878721
49.492717
56.158900
61.638951
71.372986
81.001520
154.620409
585.204959
1016.005874
1016.005874
1016.005874
1016.005874
1016.005874
1016.005874
1016.005874
1016.005874
1016.005874
1016.005874
1016.005874
1016.005874
1016.005874
1016.005874
1016.005874
1016.005874
860.129595
793.970823
847.034454
890.555978
956.682563
1001.678705
1016.005874
1016.005874
1016.005874
1016.005874
1016.005874
1016.005874
1016.005874
1016.005874
991.249681
968.135595
931.046009
908.222795
875.306726
851.397514
821.184516
801.742673
774.645805
753.452778
720.938444
689.790845
643.363595
605.414510
549.997687
513.756871
471.071601
439.447761
402.660966
376.252532
348.532796
327.469707
304.520726
289.818645
270.143747
258.172750
244.526863
231.845975
217.074752
207.686424
197.073817
190.554857
183.744431
177.836418
172.802806
##ZVALUE=300
17.993450
18.386841
18.800497
18.987656
19.445419
19.705892
20.083785
20.907521
21.454692
22.053719
22.717714
23.635626
23.773909
24.708509
25.561452
26.356578
27.102828
27.811527
29.473901
30.507445
32.368898
33.980608
37.202835
39.294958
42.969584
45.306683
50.850511
55.232644
62.620640
69.679618
82.025528
97.325444
218.876600
1016.005874
1016.005874
1016.005874
1016.005874
1016.005874
1016.005874
1016.005874
1016.005874
1016.005874
1016.005874
1016.005874
1016.005874
1016.005874
1016.005874
1016.005874
1016.005874
951.820612
544.146895
505.621433
516.144633
535.558462
553.226471
578.536987
592.748523
604.315996
605.290532
596.584678
578.718781
551.046729
527.436733
497.290492
474.691987
452.398658
440.845490
429.920554
426.175594
422.695875
416.655540
407.018661
392.421484
367.760658
344.944596
312.831998
290.112495
265.519619
247.406960
227.916837
215.729475
200.736523
192.799568
183.957815
176.317692
167.468786
161.953568
155.447721
151.483417
145.693421
142.328739
137.951970
135.120749
133.316517
130.730867
130.811930
##ZVALUE=305
17.262697
17.112494
17.377734
17.845631
18.300414
18.669963
19.130707
19.744635
20.086765
20.763874
21.091700
21.827817
22.554994
23.026466
23.304820
24.041533
25.009513
25.619864
26.780963
27.830601
29.052496
31.061769
32.250881
34.459829
37.243962
39.594769
41.696429
46.173930
49.748421
56.432486
61.717629
70.541501
79.608560
96.765757
143.953562
848.919749
1016.005874
1016.005874
1016.005874
1016.005874
1016.005874
1016.005874
1016.005874
1016.005874
1016.005874
1016.005874
1016.005874
1016.005874
1016.005874
1016.005874
1016.005874
1016.005874
542.154908
308.418870
298.694968
295.465589
300.883651
311.885476
318.820477
330.898762
335.148573
334.273577
324.723721
309.029818
290.252566
268.319845
254.980922
243.655443
241.241455
241.884589
243.048668
241.939425
235.034823
220.242739
207.009912
185.846686
171.026587
156.450868
146.286488
135.912895
130.045414
123.890638
119.878650
115.808845
113.545656
111.208558
109.129548
107.527971
105.960965
104.359984
102.667809
101.747513
101.615787
101.502538
100.736618
102.115870
##ZVALUE=310
16.513467
16.319752
16.563535
16.585588
17.408729
17.539859
18.167496
18.488765
19.186735
19.694567
20.107627
20.874739
20.944476
21.143556
21.830797
22.547841
22.642612
23.710728
24.170876
25.428534
26.270747
27.672648
29.132962
30.737519
32.665730
34.743547
37.040710
39.307475
42.556524
45.739412
49.061775
55.321455
60.107708
70.047975
78.685880
93.671679
110.381842
351.398587
1016.011834
1016.011834
1016.011834
1016.011834
1016.011834
1016.011834
1016.011834
1016.011834
1016.011834
1016.011834
1016.011834
1016.011834
1016.011834
1016.011834
1016.011834
1016.011834
907.667875
250.109434
210.520625
197.941661
192.473531
193.466544
199.822783
210.364461
217.133760
223.340988
226.646662
221.145749
216.139555
208.184719
201.525688
194.039941
190.327764
183.630586
176.489949
161.481500
150.021911
131.223798
120.227933
108.779669
101.512671
95.663667
91.712475
88.678002
88.059902
86.036921
85.987449
84.978938
84.579587
84.450841
83.984733
83.232522
83.124638
83.292723
83.517432
83.033442
83.685517
83.862543
##ZVALUE=315
15.441775
15.523434
15.386939
15.934706
16.112924
16.516447
16.807914
17.226934
18.085837
18.113852
18.785000
19.127727
19.366741
20.105839
20.335913
20.608902
21.473765
21.825433
22.675991
23.340583
24.154782
25.423765
26.514530
28.068423
29.022694
30.835867
32.736659
34.904480
36.733747
39.381981
42.205453
46.728849
50.959587
56.732893
61.706901
70.486665
78.208447
92.812777
105.900168
173.125863
632.100701
1016.005874
1016.005874
1016.005874
1016.005874
1016.005874
1016.005874
1016.005874
1016.005874
1016.005874
1016.005874
1016.005874
1016.005874
1016.005874
1016.005874
1016.005874
1016.005874
350.139737
193.663836
170.217752
160.320997
155.912638
156.423450
162.930489
170.662999
186.167955
196.960568
209.234953
215.559602
214.583874
210.505724
196.917653
181.605816
157.244802
139.633417
118.268728
106.154680
94.466805
87.793469
83.058476
80.774426
78.661442
78.074932
76.510906
76.488853
76.683760
76.421499
76.060891
76.436996
76.009631
76.081753
75.447559
75.998902
76.071620
76.368451
76.954961
##ZVALUE=320
14.668703
14.578700
14.733672
14.753938
15.386939
15.729666
15.874505
16.531944
16.504526
16.650558
17.294884
17.874837
18.357635
18.255711
18.880963
19.404888
20.043850
20.126700
21.143556
21.435618
21.903515
23.474693
23.860931
25.362968
26.136637
27.721524
28.818846
30.707717
31.878948
34.099817
36.673546
39.324760
42.192936
46.451688
49.925447
55.403709
61.076880
69.905519
76.235533
88.770986
98.811984
122.233629
265.841484
1016.005874
1016.005874
1016.005874
1016.005874
1016.005874
1016.005874
1016.005874
1016.005874
1016.005874
1016.005874
1016.005874
1016.005874
1016.005874
1016.005874
1016.005874
1016.005874
745.869875
231.181979
165.441632
152.047873
143.193603
141.505599
145.100951
155.532956
175.234675
193.755627
213.091969
222.499967
224.795938
213.486552
189.773440
166.175961
135.720968
116.277933
97.886920
88.622570
81.304908
78.456998
75.265765
75.104833
74.038506
74.170828
73.958635
73.538423
74.204803
73.830485
73.817968
73.804855
74.089766
73.380470
73.896646
73.772669
74.909925
##ZVALUE=325
13.631582
13.714433
13.552904
14.306903
14.294982
14.525652
14.844537
15.405416
15.677810
15.804768
16.076565
16.967654
16.859770
17.414689
17.595887
17.870665
18.495917
18.821955
19.486547
19.946694
20.691752
21.003485
22.387505
22.692680
23.931861
24.832487
26.282668
27.304888
28.787851
30.252934
31.729937
34.086704
35.989881
39.914846
42.582750
46.801567
50.228834
55.579543
59.999824
67.150593
73.942542
84.259510
93.879700
110.340714
158.826709
879.790783
1016.005874
1016.005874
1016.005874
1016.005874
1016.005874
1016.005874
1016.005874
1016.005874
1016.005874
1016.005874
1016.005874
1016.005874
1016.005874
1016.005874
1016.005874
1007.993817
341.835618
169.813633
153.693557
142.318606
140.234828
147.317648
158.292651
178.133845
193.506479
207.132697
211.916566
205.241442
192.798972
169.248581
149.911642
125.642419
109.695792
93.308687
85.150599
77.778697
76.056719
73.406696
72.579980
72.312951
72.245598
71.884990
72.099566
72.347522
72.072744
72.285533
72.399974
73.365569
73.204637
74.228644
##ZVALUE=330
12.823939
12.760758
12.889504
13.607740
13.326406
13.604760
14.009476
14.356971
14.572740
14.883876
15.342832
15.366673
15.591979
15.933514
16.177893
16.530752
16.657710
17.407537
17.639995
18.110871
19.034743
19.413829
20.282865
20.903945
22.002459
22.367835
23.603439
24.395585
25.774837
26.944876
27.916431
30.129552
31.805634
34.796000
36.412477
39.421916
42.351484
45.843720
49.647689
54.211617
58.407784
65.048933
70.333481
79.421997
88.335872
103.124976
119.574666
367.916822
1016.005874
1016.005874
1016.005874
1016.005874
1016.005874
1016.005874
1016.005874
1016.005874
1016.005874
1016.005874
1016.005874
1016.005874
1016.005874
1016.005874
1016.005874
1016.005874
741.614699
185.351968
161.345005
154.326558
154.544711
159.307718
165.156722
171.963573
175.958872
177.254677
175.361633
169.090629
163.945556
152.938962
142.642856
125.435591
113.551617
98.497868
89.495778
81.481934
77.181458
73.938966
72.210431
71.533918
70.997477
71.981549
71.425438
71.576834
72.274804
73.221922
74.058771
74.878931
##ZVALUE=335
11.795759
12.123585
12.049675
12.236834
12.747645
12.853742
12.922883
13.288856
13.757944
13.840795
14.256835
14.429688
14.663935
14.611483
15.248656
15.223622
15.503764
16.013980
16.504526
16.886592
17.381907
17.779469
18.505454
18.996000
19.646883
20.093918
21.219850
22.324920
22.924542
24.239421
25.524497
27.277470
28.223991
30.062795
32.002926
34.395456
36.295652
39.459467
41.838884
45.255423
47.950745
52.441955
56.207776
62.331557
67.221522
75.243711
83.012581
93.601942
105.152726
181.972980
650.400519
1016.005874
1016.005874
1016.005874
1016.005874
1016.005874
1016.005874
1016.005874
1016.005874
1016.005874
1016.005874
1016.005874
1016.005874
1016.005874
1016.005874
1016.005874
1016.005874
256.094933
176.410675
168.561935
165.953636
161.652565
155.935884
146.606565
140.399933
134.695768
134.596825
137.164593
139.352679
140.639544
137.657523
128.693581
119.954944
106.869936
97.104907
86.411834
81.340671
75.219870
73.195696
72.009563
71.183443
72.015524
72.564483
73.296428
74.156523
75.680614
##ZVALUE=340
11.418462
11.193752
11.276603
11.509657
11.751652
12.105703
12.173653
12.420416
12.652874
12.883544
13.042688
13.222694
13.483763
13.610721
13.792515
13.988614
14.462471
14.555454
14.964938
15.295744
15.833974
16.400814
16.566515
17.222762
17.751455
18.446445
18.945932
19.915700
20.849705
21.690726
22.510886
23.988485
25.169849
26.939511
28.002858
30.188560
31.700730
33.796430
35.568476
38.127899
40.360689
43.767691
46.161413
49.976707
53.383708
58.860779
62.605739
69.297552
75.175762
85.259676
94.740987
121.547580
297.728777
1016.005874
1016.005874
1016.005874
1016.005874
1016.005874
1016.005874
1016.005874
1016.005874
1016.005874
1016.005874
1016.005874
1016.005874
1016.005874
1016.005874
1016.005874
1016.005874
419.343710
199.825764
179.677606
169.295669
150.696635
136.379600
119.699836
110.691786
106.888413
108.314753
115.753412
121.964812
129.103661
131.194592
129.256845
124.449730
114.654899
106.445551
96.540451
89.055896
80.397725
77.214837
74.542761
74.282885
74.396729
75.598955
76.551437
##ZVALUE=345
11.364818
11.220574
11.375546
11.708736
11.777878
11.901855
11.939406
12.124777
12.459755
12.445450
13.007522
13.119578
12.896657
13.251901
13.620853
13.497472
13.957620
14.011860
14.126897
14.752746
14.898777
15.520453
15.694499
16.277432
16.861558
17.409921
17.941594
18.525720
19.342899
20.283461
20.872951
21.802783
22.828579
24.402738
25.351644
26.647449
28.213859
29.949546
31.437874
33.876896
35.130978
37.715435
39.481521
41.858554
44.190884
47.465563
50.333738
55.179596
58.708787
64.294934
69.649816
78.178644
85.668564
99.899769
151.967406
859.552026
1016.005874
1016.005874
1016.005874
1016.005874
1016.005874
1016.005874
1016.005874
1016.005874
1016.005874
1016.005874
1016.005874
1016.005874
1016.005874
1016.005874
1016.005874
798.683763
272.880793
198.886991
174.584985
144.364834
124.480724
105.489492
97.211599
93.768835
96.314549
102.281570
109.237432
117.786527
123.489499
127.750635
127.292871
123.677850
117.064714
108.147860
99.620819
90.905428
86.542964
82.591772
81.229806
81.659555
##ZVALUE=350
12.184978
12.122989
12.392998
12.496710
12.542605
12.562871
12.976527
12.966990
13.222694
13.520718
13.797879
13.797879
13.885498
14.201999
14.225841
14.453530
14.717579
14.624596
14.854670
15.199780
15.470982
15.948415
16.150475
16.789436
17.322898
17.863512
18.312931
18.853545
19.445419
19.788742
20.633936
21.525621
22.371411
23.384690
24.599433
25.521517
26.954412
27.896762
29.168725
30.624866
32.460690
33.816695
35.586953
37.333965
39.407611
41.737556
43.778419
46.831965
49.448609
52.455664
56.860447
60.618520
67.394972
73.286891
82.290769
91.322660
118.723512
326.036811
1016.005874
1016.005874
1016.005874
1016.005874
1016.005874
1016.005874
1016.005874
1016.005874
1016.005874
1016.005874
1016.005874
1016.005874
1016.005874
1016.005874
1016.005874
1016.005874
315.058827
178.459883
142.040849
122.396946
105.249882
97.279549
91.825724
90.875626
91.725588
94.449520
99.821687
106.245875
115.261674
121.293664
126.370788
126.519799
123.579502
119.210482
111.336708
105.475783
98.696947
94.819665
##ZVALUE=355
13.205409
13.171434
13.338923
13.506413
13.753772
13.776422
13.963580
14.098883
14.430881
14.602542
14.913678
15.005469
15.161633
15.350580
15.449524
15.797615
15.939474
16.060472
16.476512
16.681552
17.090440
17.356873
17.943978
18.254519
18.863678
19.060969
19.395947
20.177960
20.752549
21.375418
22.020936
22.793412
23.475885
24.579763
25.117993
26.251674
27.012825
28.601885
29.185414
31.064749
31.782985
33.334494
34.094453
35.833716
37.102699
39.357543
40.905476
43.237805
44.934750
48.368573
50.828457
54.141879
57.679415
62.574744
66.360831
73.215961
79.003572
89.374781
100.826621
205.010176
771.285892
1016.005874
1016.005874
1016.005874
1016.005874
1016.005874
1016.005874
1016.005874
1016.005874
1016.005874
1016.005874
1016.005874
1016.005874
1016.005874
1016.005874
1016.005874
497.439504
163.344741
136.887431
119.003654
109.480619
100.539923
95.950961
92.519522
91.005564
90.780854
93.785524
99.561810
105.030537
112.899542
119.305849
125.464797
127.238631
126.305819
122.937560
117.461681
##ZVALUE=360
13.798475
13.770461
13.764501
13.823509
14.228821
14.238954
14.538765
14.810562
14.816523
15.155673
15.308857
15.517473
15.847683
16.064644
16.212463
16.515851
16.695857
16.672611
17.275810
17.476678
17.523766
18.119812
18.837452
19.080639
19.656420
20.015836
20.124912
21.118522
21.490455
22.132993
22.941828
23.476481
24.109483
25.183558
25.789738
27.012825
27.670860
28.930902
29.552579
30.821562
31.703711
33.202767
33.774972
35.163760
36.310554
38.299561
39.231777
41.095614
42.225718
44.918656
47.291517
49.786568
52.555799
56.009889
58.153868
62.754750
66.980720
72.798729
79.771876
91.309547
102.439523
132.872462
319.647789
1016.005874
1016.005874
1016.005874
1016.005874
1016.005874
1016.005874
1016.005874
1016.005874
1016.005874
1016.005874
1016.005874
1016.005874
1016.005874
1016.005874
1016.005874
951.586962
205.832720
141.640902
123.092532
112.436414
103.134513
97.404718
92.459917
89.647770
87.818503
87.600946
91.212988
94.685555
101.950765
107.484460
116.112828
120.697618
124.996901
##ZVALUE=365
13.557673
13.530850
13.400912
13.808608
14.028549
14.125705
14.384985
14.386773
14.767647
14.817715
15.255809
15.177727
15.198588
15.628934
15.724897
15.835762
15.900731
16.492605
16.525984
16.743541
17.216802
17.392635
17.832518
18.134713
18.669963
18.836856
19.405484
19.911528
20.301938
20.750761
21.551847
22.263527
22.651553
23.445487
24.097562
25.062561
25.578737
27.174950
27.748942
28.577447
29.593706
30.524731
31.271577
32.572746
33.193827
34.617782
35.246611
36.396980
37.538409
39.166808
40.209889
42.388439
44.063926
46.492815
48.924685
52.386522
54.781437
58.949590
63.210726
69.942474
76.425672
87.917447
97.641945
112.027526
162.280798
842.133760
1016.005874
1016.005874
1016.005874
1016.005874
1016.005874
1016.005874
1016.005874
1016.005874
1016.005874
1016.005874
1016.005874
1016.005874
1016.005874
1016.005874
1016.005874
307.780504
141.656995
118.239522
108.616948
99.066496
93.050003
87.803602
84.747672
82.410574
81.268549
82.114935
83.642602
88.418722
93.239546
101.020932
##ZVALUE=370
12.646914
12.367964
12.664795
12.587905
12.862682
12.994409
13.015866
13.399720
13.310909
13.578534
13.582706
13.652444
13.893843
13.808608
14.021993
14.197826
14.447570
14.540553
14.815927
15.028715
15.183687
15.422702
15.608668
15.928745
16.169548
16.614795
16.934872
17.254949
17.470717
18.108487
18.826723
19.382834
19.863844
20.413995
20.707846
21.900535
22.283792
22.981763
23.575425
24.344921
25.259852
25.805831
26.764870
27.893782
28.239489
29.022694
29.404759
30.012727
30.983686
31.953454
33.107996
34.482479
35.538673
37.263632
38.625598
40.619969
42.909980
45.238733
47.198534
51.306486
55.214763
61.607957
66.890717
74.452758
81.580877
94.635487
115.319490
427.581072
1016.005874
1016.005874
1016.005874
1016.005874
1016.005874
1016.005874
1016.005874
1016.005874
1016.005874
1016.005874
1016.005874
1016.005874
1016.005874
1016.005874
1016.005874
701.731443
191.966891
114.424825
104.275942
95.474720
90.297461
84.699988
81.732869
78.798532
77.752471
77.049732
77.703595
80.217719
##ZVALUE=375
10.653734
10.573864
10.816455
10.953546
10.900497
10.839701
11.164546
11.431575
11.330843
11.492968
11.441708
11.449456
11.389852
11.738539
11.674762
11.868477
12.270808
12.298822
12.523532
12.670755
12.741685
12.995601
12.948513
13.068914
13.590455
13.796687
14.126897
14.173985
14.822483
15.004873
15.376806
16.030669
16.270876
17.122626
17.445683
18.257499
18.853545
19.299984
19.826889
20.685792
21.076798
21.698475
22.291541
22.773743
23.520589
24.034977
24.434924
25.163889
25.579929
26.582479
27.399659
28.314590
29.276609
30.436516
31.483769
33.195615
34.127831
35.916567
37.363768
40.041804
42.055845
45.552850
48.585534
54.020882
58.442950
67.475438
76.020956
90.800524
105.909705
213.729739
738.583803
1015.983820
1015.983820
1015.983820
1015.983820
1015.983820
1015.983820
1015.983820
1015.983820
1015.983820
1015.983820
1015.983820
1015.983820
1015.983820
1015.983820
1015.983820
506.621599
127.104521
107.900500
96.533895
91.057420
84.944963
81.124902
77.983737
76.665878
75.401664
##ZVALUE=380
9.137988
9.111762
8.960962
9.153485
9.260774
9.294748
9.374619
9.367466
9.599924
9.832978
9.699464
9.739995
9.969473
9.937882
9.925961
9.918809
10.267496
10.338426
10.253787
10.437965
10.700822
10.707974
11.283755
11.327863
11.462569
11.789799
11.989474
12.209415
12.694597
12.953877
13.427734
13.777614
14.195442
14.909506
15.363693
15.921593
16.424656
16.923547
17.465949
18.124580
18.580556
19.268990
19.712448
20.363927
20.772815
21.337867
21.384954
22.267699
22.466779
23.477674
24.149418
25.040507
25.778413
26.643872
27.447939
28.631687
29.624701
31.102896
31.986833
33.950806
35.055876
37.976503
40.245652
44.726729
48.728585
55.430532
62.209964
73.923469
82.803965
97.014904
106.252432
137.509704
366.208553
1016.005874
1016.005874
1016.005874
1016.005874
1016.005874
1016.005874
1016.005874
1016.005874
1016.005874
1016.005874
1016.005874
1016.005874
1016.005874
1016.005874
1016.005874
942.980051
201.828480
111.501813
96.587539
90.407729
83.917975
80.031753
76.818466
##ZVALUE=385
7.671714
7.735491
7.906556
8.099675
8.152723
7.898808
8.073449
8.150935
8.341670
8.294582
8.609891
8.544922
8.659959
8.562803
8.772612
8.790493
8.992553
9.095669
9.045601
9.400845
9.485483
9.753704
9.702444
9.987950
10.259748
10.660887
10.825992
11.162758
11.474490
11.748672
12.025833
12.560487
12.856722
13.661981
13.974905
14.609694
15.160441
15.706420
16.341805
16.741753
17.335415
17.848611
18.453598
19.006729
19.343495
19.892454
20.484924
21.251440
21.273494
22.324920
22.584796
23.285747
23.861527
24.840832
25.409460
26.360750
26.807785
28.300881
29.052496
30.585527
31.681657
33.790469
35.754442
39.507747
43.123960
49.749613
55.812597
63.980818
70.622563
77.557564
81.850886
86.353421
90.020895
98.541975
171.228647
922.075510
1016.005874
1016.005874
1016.005874
1016.005874
1016.005874
1016.005874
1016.005874
1016.005874
1016.005874
1016.005874
1016.005874
1016.005874
1016.005874
1016.005874
1016.005874
398.480892
131.690502
98.978877
91.203451
83.329678
##ZVALUE=390
7.246733
7.179976
7.124543
7.427931
7.481575
7.498860
7.595420
7.810593
7.979870
7.918477
7.925630
8.224845
8.084774
8.255839
8.426905
8.506775
8.608699
8.660555
8.557439
8.784533
9.175539
9.151697
9.383559
9.783506
9.755492
10.055900
10.395646
10.516644
10.880828
11.293888
11.569858
12.065768
12.585521
13.050437
13.198853
14.347434
14.833808
15.476942
16.151667
16.813874
17.304420
18.054843
18.481612
18.970966
19.222498
20.235777
20.519495
21.300912
21.574497
22.311807
22.455454
23.427606
23.769736
24.468899
24.942756
25.681853
26.388764
27.452707
28.188825
29.384494
30.431747
32.227635
34.206510
37.721992
41.319728
47.997832
53.710938
61.133504
66.524744
71.780682
73.955655
74.765682
75.237751
75.320601
77.291727
84.433556
105.687976
480.597615
1016.005874
1016.005874
1016.005874
1016.005874
1016.005874
1016.005874
1016.005874
1016.005874
1016.005874
1016.005874
1016.005874
1016.005874
1016.005874
1016.005874
1016.005874
964.565873
276.067853
105.139613
##ZVALUE=395
7.008910
7.091761
7.115602
6.992817
7.381439
7.463694
7.516742
7.749796
7.480979
7.768869
7.758737
7.776618
8.217692
8.167624
8.174777
8.262992
8.159876
8.323789
8.592606
8.645654
8.854866
9.002686
9.077787
9.463429
9.580851
9.943843
10.295510
10.602474
10.796785
11.047721
11.529922
11.854768
12.434721
13.168454
13.349652
14.104843
14.822483
15.452504
16.165972
16.930699
17.603636
18.183589
18.762946
19.202828
19.978881
20.378828
20.890832
21.609664
21.867752
22.599697
23.088455
23.663640
23.868680
24.130940
24.876595
25.444627
26.407838
27.025938
27.888417
28.458834
29.697418
31.884909
33.863783
37.000775
40.619969
46.661496
51.406622
58.022738
61.204433
64.804554
65.433979
64.304471
63.050985
62.076449
62.945485
65.871477
70.376992
78.097582
89.127421
247.264504
913.325548
1016.005874
1016.005874
1016.005874
1016.005874
1016.005874
1016.005874
1016.005874
1016.005874
1016.005874
1016.005874
1016.005874
1016.005874
1016.005874
1016.005874
1016.005874
##ZVALUE=400
6.939769
6.733537
6.984472
6.976724
7.092953
7.201433
7.283688
7.530451
7.586479
7.682443
7.733703
7.691979
7.601976
7.866621
7.843971
8.085966
7.986426
8.033514
8.030534
8.401871
8.585453
8.702874
8.991957
9.000897
9.423494
9.662509
10.040998
10.081530
10.598898
10.851622
11.208653
11.681914
12.161732
12.900829
13.439655
14.138818
15.039444
15.827417
16.341805
17.152429
17.737746
18.204451
18.804669
19.574761
20.104647
20.683408
21.235943
21.360517
21.999478
22.600889
23.014545
23.565888
24.147630
24.414659
24.604797
25.419593
25.826693
26.555657
27.394891
28.161407
29.195547
31.266809
33.187866
36.829710
40.576458
46.059489
50.201416
54.912567
57.751536
59.185624
58.831573
57.390928
55.329800
53.341985
52.595735
54.433942
56.475997
61.647892
66.505671
75.470805
84.265471
147.010684
510.695577
1016.005874
1016.005874
1016.005874
1016.005874
1016.005874
1016.005874
1016.005874
1016.005874
1016.005874
1016.005874
1016.005874
1016.005874
1016.005874
##END
