Data from 2018-2-7_conc=6_RamanShift_06.txt Node
Date: Tue Feb 13 14:29:43 IST 2018
User: aro
Spectrometer: QEPB0276
Trigger mode: 0
Integration Time (sec): 3.000000E1
Scans to average: 1
Electric dark correction enabled: true
Nonlinearity correction enabled: false
Boxcar width: 0
XAxis mode: Raman Shifts
Number of Pixels in Spectrum: 1044
>>>>>Begin Spectral Data<<<<<
160.701	-160
166.742	35
172.777	603
178.805	2314
184.826	6342
190.841	13167
196.849	20862
202.85	26197
208.845	27853
214.833	27559
220.815	27046
226.789	26721
232.758	26702
238.719	26467
244.674	26100
250.623	25577
256.565	25092
262.5	24530
268.429	24123
274.351	23685
280.267	23354
286.176	23100
292.079	22926
297.975	22629
303.865	22414
309.748	22243
315.625	22125
321.495	21993
327.359	21956
333.217	21827
339.068	21799
344.912	21841
350.751	21835
356.583	21737
362.408	21691
368.227	21768
374.04	21780
379.847	21881
385.647	21875
391.44	21961
397.228	22093
403.009	22230
408.784	22231
414.553	22336
420.315	22432
426.071	22408
431.821	22353
437.565	22345
443.302	22304
449.033	22196
454.758	22228
460.477	22116
466.189	22104
471.896	22058
477.596	21988
483.29	21949
488.978	21896
494.66	21867
500.335	21682
506.005	21493
511.668	21177
517.325	21000
522.977	20773
528.622	20625
534.261	20494
539.894	20405
545.521	20307
551.141	20228
556.756	20154
562.365	20105
567.968	20033
573.565	19879
579.155	19810
584.74	19756
590.319	19715
595.892	19601
601.459	19537
607.02	19430
612.575	19329
618.124	19229
623.667	19108
629.204	18985
634.735	18966
640.261	18841
645.781	18797
651.294	18768
656.802	18697
662.304	18697
667.8	18660
673.29	18632
678.775	18543
684.254	18514
689.726	18428
695.193	18377
700.655	18344
706.11	18212
711.56	18110
717.004	18014
722.442	17857
727.874	17849
733.301	17809
738.722	17759
744.137	17779
749.547	17775
754.951	17711
760.349	17752
765.741	17757
771.128	17717
776.509	17787
781.885	17744
787.254	17730
792.618	17615
797.977	17463
803.33	17409
808.677	17277
814.019	17248
819.355	17086
824.686	17054
830.011	16954
835.33	17004
840.644	17059
845.952	17043
851.255	17059
856.552	17112
861.844	17033
867.13	17014
872.41	16912
877.686	16863
882.955	16701
888.219	16581
893.478	16384
898.731	16199
903.979	16010
909.221	15890
914.458	15749
919.69	15812
924.916	15876
930.136	15872
935.351	15966
940.561	15887
945.766	15938
950.965	15853
956.158	15702
961.347	15550
966.529	15327
971.707	15111
976.879	14957
982.046	14801
987.208	14795
992.364	14798
997.515	14922
1002.66	15006
1007.801	15185
1012.936	15305
1018.066	15313
1023.19	15297
1028.309	15281
1033.423	15238
1038.532	15137
1043.636	15047
1048.734	14818
1053.827	14679
1058.915	14521
1063.998	14400
1069.075	14388
1074.147	14352
1079.214	14439
1084.276	14560
1089.333	14632
1094.385	14694
1099.431	14715
1104.472	14665
1109.509	14589
1114.54	14396
1119.565	14239
1124.586	14121
1129.602	13957
1134.613	13856
1139.618	13791
1144.619	13694
1149.614	13758
1154.604	13762
1159.589	13777
1164.57	13805
1169.545	13851
1174.515	13824
1179.48	13753
1184.44	13604
1189.395	13550
1194.345	13449
1199.29	13400
1204.23	13420
1209.165	13445
1214.095	13546
1219.021	13557
1223.941	13645
1228.856	13716
1233.766	13757
1238.672	13749
1243.572	13759
1248.467	13682
1253.358	13512
1258.244	13315
1263.124	13120
1268	12899
1272.871	12756
1277.737	12695
1282.599	12575
1287.455	12604
1292.306	12587
1297.153	12663
1301.995	12691
1306.832	12744
1311.664	12714
1316.491	12704
1321.314	12606
1326.132	12376
1330.945	12157
1335.753	11841
1340.556	11605
1345.354	11393
1350.148	11191
1354.937	11084
1359.722	11021
1364.501	11101
1369.276	11120
1374.046	11340
1378.811	11453
1383.572	11569
1388.327	11621
1393.079	11528
1397.825	11452
1402.567	11245
1407.304	11141
1412.036	11030
1416.764	10956
1421.487	10879
1426.205	10830
1430.919	10787
1435.628	10823
1440.333	10810
1445.032	10860
1449.727	10898
1454.418	10859
1459.104	10754
1463.785	10552
1468.462	10345
1473.134	10060
1477.802	9849
1482.465	9691
1487.123	9585
1491.777	9551
1496.426	9564
1501.071	9679
1505.711	9766
1510.347	9929
1514.978	10161
1519.604	10236
1524.226	10367
1528.844	10386
1533.457	10308
1538.065	10330
1542.669	10268
1547.269	10200
1551.864	10153
1556.454	10105
1561.041	10148
1565.622	10117
1570.199	10146
1574.772	10149
1579.34	10241
1583.904	10345
1588.464	10395
1593.019	10313
1597.569	10357
1602.115	10265
1606.657	10230
1611.195	10151
1615.728	10114
1620.256	10083
1624.78	10044
1629.3	10060
1633.816	10128
1638.327	10144
1642.834	10215
1647.336	10292
1651.834	10252
1656.328	10200
1660.817	10162
1665.302	10049
1669.783	9861
1674.259	9616
1678.732	9335
1683.199	8968
1687.663	8724
1692.122	8450
1696.577	8257
1701.028	8211
1705.474	8231
1709.917	8278
1714.355	8334
1718.788	8294
1723.218	8162
1727.643	8004
1732.064	7935
1736.481	7687
1740.893	7511
1745.301	7323
1749.705	7128
1754.105	6928
1758.501	6738
1762.893	6523
1767.28	6401
1771.663	6220
1776.042	6145
1780.417	6066
1784.787	6065
1789.154	6093
1793.516	6140
1797.874	6274
1802.228	6372
1806.578	6450
1810.924	6458
1815.266	6394
1819.603	6322
1823.937	6227
1828.266	6122
1832.591	6027
1836.913	5978
1841.23	5901
1845.543	5896
1849.852	5826
1854.156	5842
1858.457	5836
1862.754	5804
1867.047	5817
1871.335	5802
1875.62	5780
1879.9	5754
1884.177	5720
1888.449	5624
1892.718	5611
1896.982	5536
1901.243	5472
1905.499	5475
1909.752	5413
1914	5392
1918.245	5373
1922.485	5418
1926.722	5479
1930.954	5548
1935.183	5600
1939.408	5629
1943.628	5694
1947.845	5687
1952.058	5716
1956.267	5609
1960.472	5557
1964.673	5496
1968.87	5423
1973.063	5340
1977.252	5281
1981.438	5208
1985.619	5181
1989.797	5109
1993.971	5096
1998.14	5084
2002.306	5079
2006.469	5034
2010.627	5009
2014.781	4975
2018.932	4947
2023.078	4925
2027.221	4848
2031.36	4756
2035.495	4718
2039.627	4615
2043.754	4569
2047.878	4505
2051.998	4478
2056.114	4455
2060.226	4475
2064.334	4460
2068.439	4472
2072.54	4491
2076.637	4513
2080.73	4572
2084.82	4577
2088.906	4573
2092.988	4583
2097.066	4581
2101.14	4517
2105.211	4477
2109.278	4483
2113.342	4437
2117.401	4425
2121.457	4406
2125.509	4399
2129.558	4345
2133.602	4311
2137.643	4335
2141.681	4296
2145.714	4261
2149.744	4239
2153.77	4234
2157.793	4202
2161.812	4127
2165.827	4050
2169.838	4040
2173.846	3981
2177.851	3874
2181.851	3829
2185.848	3791
2189.841	3756
2193.831	3690
2197.817	3688
2201.799	3624
2205.778	3662
2209.753	3633
2213.725	3609
2217.693	3615
2221.657	3593
2225.618	3600
2229.575	3550
2233.529	3537
2237.479	3515
2241.425	3462
2245.368	3418
2249.307	3372
2253.243	3311
2257.175	3295
2261.104	3221
2265.029	3199
2268.95	3166
2272.868	3111
2276.783	3079
2280.694	3076
2284.601	3011
2288.505	2992
2292.405	2972
2296.302	2966
2300.195	2923
2304.085	2881
2307.971	2827
2311.854	2786
2315.734	2741
2319.609	2710
2323.482	2677
2327.351	2640
2331.216	2650
2335.078	2615
2338.937	2605
2342.792	2584
2346.643	2609
2350.492	2609
2354.336	2593
2358.178	2593
2362.015	2614
2365.85	2607
2369.681	2622
2373.508	2610
2377.333	2605
2381.153	2607
2384.971	2616
2388.785	2568
2392.595	2550
2396.402	2535
2400.206	2521
2404.007	2493
2407.804	2491
2411.597	2449
2415.388	2443
2419.174	2440
2422.958	2386
2426.738	2375
2430.515	2372
2434.289	2353
2438.059	2314
2441.825	2311
2445.589	2302
2449.349	2259
2453.106	2235
2456.859	2209
2460.61	2160
2464.356	2138
2468.1	2143
2471.84	2108
2475.577	2082
2479.311	2079
2483.041	2076
2486.768	2046
2490.492	2058
2494.213	2024
2497.93	2019
2501.644	2030
2505.355	2021
2509.062	2004
2512.766	1978
2516.467	1976
2520.165	1945
2523.859	1938
2527.551	1933
2531.239	1929
2534.923	1885
2538.605	1875
2542.283	1848
2545.958	1869
2549.63	1853
2553.299	1850
2556.964	1847
2560.626	1862
2564.285	1836
2567.941	1808
2571.594	1825
2575.243	1803
2578.89	1793
2582.533	1765
2586.173	1754
2589.809	1735
2593.443	1722
2597.073	1707
2600.701	1678
2604.325	1695
2607.946	1690
2611.564	1676
2615.178	1654
2618.79	1660
2622.398	1641
2626.004	1620
2629.606	1582
2633.205	1559
2636.801	1551
2640.394	1539
2643.983	1505
2647.57	1478
2651.153	1469
2654.734	1430
2658.311	1417
2661.885	1394
2665.456	1373
2669.025	1370
2672.589	1348
2676.151	1331
2679.71	1323
2683.266	1288
2686.819	1278
2690.368	1250
2693.915	1232
2697.458	1204
2700.999	1162
2704.536	1138
2708.071	1125
2711.602	1107
2715.13	1087
2718.656	1061
2722.178	1029
2725.697	1010
2729.214	997
2732.727	979
2736.237	968
2739.744	990
2743.249	966
2746.75	962
2750.248	983
2753.743	976
2757.236	1008
2760.725	1015
2764.211	1023
2767.695	1009
2771.175	1037
2774.652	1012
2778.127	990
2781.598	998
2785.067	975
2788.532	990
2791.995	984
2795.455	986
2798.911	1005
2802.365	994
2805.816	1013
2809.264	993
2812.709	986
2816.151	992
2819.59	999
2823.026	1008
2826.46	992
2829.89	992
2833.318	1000
2836.742	998
2840.164	1026
2843.583	1023
2846.999	1035
2850.412	1064
2853.822	1062
2857.229	1085
2860.634	1093
2864.035	1111
2867.434	1120
2870.83	1167
2874.223	1188
2877.613	1206
2881	1234
2884.385	1226
2887.766	1244
2891.145	1242
2894.521	1228
2897.894	1216
2901.264	1238
2904.631	1231
2907.996	1244
2911.358	1225
2914.717	1247
2918.073	1276
2921.426	1276
2924.777	1279
2928.124	1320
2931.469	1325
2934.811	1355
2938.15	1385
2941.487	1392
2944.821	1400
2948.152	1393
2951.48	1410
2954.805	1384
2958.128	1363
2961.447	1354
2964.765	1342
2968.079	1350
2971.39	1352
2974.699	1379
2978.005	1401
2981.308	1430
2984.609	1466
2987.907	1481
2991.202	1513
2994.494	1539
2997.784	1565
3001.07	1591
3004.355	1630
3007.636	1648
3010.915	1648
3014.191	1682
3017.464	1685
3020.734	1697
3024.002	1725
3027.267	1736
3030.53	1743
3033.789	1754
3037.046	1789
3040.301	1835
3043.552	1865
3046.801	1896
3050.048	1921
3053.291	1980
3056.532	2034
3059.771	2094
3063.006	2167
3066.239	2214
3069.469	2268
3072.697	2356
3075.922	2404
3079.144	2497
3082.364	2532
3085.581	2570
3088.795	2638
3092.007	2710
3095.216	2743
3098.423	2820
3101.627	2869
3104.828	2927
3108.026	3005
3111.222	3058
3114.416	3107
3117.607	3202
3120.795	3267
3123.98	3360
3127.163	3428
3130.344	3545
3133.521	3599
3136.696	3702
3139.869	3789
3143.039	3825
3146.206	3889
3149.371	3899
3152.533	3987
3155.693	3974
3158.85	4022
3162.005	4022
3165.157	4054
3168.306	4081
3171.453	4074
3174.597	4093
3177.739	4080
3180.878	4100
3184.014	4119
3187.149	4115
3190.28	4128
3193.409	4109
3196.536	4144
3199.659	4125
3202.781	4168
3205.9	4130
3209.016	4121
3212.13	4111
3215.241	4066
3218.35	4027
3221.456	4003
3224.56	3966
3227.661	3894
3230.76	3900
3233.856	3828
3236.95	3799
3240.041	3775
3243.13	3740
3246.216	3718
3249.3	3695
3252.382	3690
3255.46	3670
3258.537	3666
3261.611	3653
3264.682	3645
3267.751	3646
3270.818	3633
3273.882	3632
3276.943	3633
3280.002	3586
3283.059	3559
3286.113	3506
3289.165	3452
3292.214	3436
3295.261	3355
3298.306	3321
3301.348	3264
3304.387	3198
3307.425	3149
3310.459	3103
3313.492	3059
3316.521	2997
3319.549	2987
3322.574	2962
3325.597	2915
3328.617	2900
3331.635	2899
3334.65	2893
3337.663	2851
3340.674	2852
3343.682	2824
3346.688	2819
3349.691	2834
3352.692	2801
3355.691	2777
3358.687	2761
3361.681	2700
3364.673	2684
3367.662	2643
3370.649	2604
3373.633	2579
3376.615	2531
3379.595	2506
3382.572	2465
3385.547	2438
3388.52	2421
3391.49	2333
3394.458	2326
3397.424	2280
3400.387	2249
3403.348	2236
3406.307	2209
3409.263	2194
3412.217	2163
3415.168	2118
3418.118	2087
3421.065	2067
3424.009	2046
3426.951	2000
3429.891	1964
3432.829	1927
3435.764	1873
3438.697	1812
3441.628	1781
3444.557	1725
3447.483	1675
3450.407	1636
3453.328	1555
3456.247	1526
3459.164	1467
3462.079	1402
3464.991	1386
3467.902	1330
3470.809	1258
3473.715	1208
3476.618	1168
3479.519	1129
3482.418	1103
3485.315	1051
3488.209	1005
3491.101	975
3493.99	950
3496.878	901
3499.763	856
3502.646	836
3505.527	792
3508.405	758
3511.281	712
3514.155	672
3517.027	617
3519.897	586
3522.764	548
3525.629	500
3528.492	466
3531.352	415
3534.211	393
3537.067	347
3539.921	314
3542.773	283
3545.622	241
3548.469	203
3551.315	172
3554.157	144
3556.998	119
3559.837	96
3562.673	72
3565.507	62
3568.339	29
3571.169	3
3573.996	-8
3576.822	-33
3579.645	-48
3582.466	-88
3585.285	-95
3588.101	-107
3590.916	-127
3593.728	-156
3596.538	-175
3599.346	-184
3602.152	-207
3604.956	-220
3607.757	-237
3610.556	-249
3613.354	-273
3616.149	-290
3618.942	-293
3621.732	-306
3624.521	-308
3627.307	-331
3630.092	-342
3632.874	-347
3635.654	-364
3638.432	-372
3641.208	-381
3643.982	-381
3646.753	-393
3649.523	-403
3652.29	-411
3655.055	-424
3657.818	-440
3660.579	-440
3663.338	-453
3666.095	-465
3668.849	-468
3671.602	-483
3674.352	-497
3677.101	-494
3679.847	-510
3682.591	-503
3685.333	-515
3688.073	-520
3690.811	-522
3693.547	-528
3696.281	-538
3699.013	-542
3701.742	-548
3704.47	-556
3707.195	-563
3709.919	-563
3712.64	-569
3715.359	-573
3718.076	-571
3720.792	-579
3723.505	-585
3726.216	-588
3728.925	-591
3731.632	-602
3734.336	-601
3737.039	-604
3739.74	-599
3742.439	-601
3745.136	-611
3747.83	-612
3750.523	-607
3753.213	-617
3755.902	-615
3758.589	-617
3761.273	-614
3763.956	-621
3766.636	-616
3769.315	-624
3771.991	-620
3774.665	-625
3777.338	-632
3780.008	-624
3782.677	-630
3785.343	-631
3788.007	-627
3790.67	-627
3793.33	-639
3795.989	-640
3798.645	-638
3801.299	-648
3803.952	-645
3806.602	-645
3809.251	-648
3811.897	-644
3814.542	-638
3817.184	-648
3819.825	-646
3822.463	-643
3825.1	-651
3827.735	-651
3830.367	-651
3832.998	-654
3835.627	-654
3838.253	-657
3840.878	-656
3843.501	-654
3846.122	-656
3848.741	-655
3851.358	-656
3853.973	-657
3856.586	-654
3859.197	-652
3861.806	-659
3864.414	-659
3867.019	-653
3869.622	-661
3872.224	-655
3874.823	-637
3877.421	-613
3880.016	-594
3882.61	-563
3885.202	-563
3887.792	-588
3890.38	-614
3892.966	-642
3895.55	-647
3898.132	-659
3900.713	-668
3903.291	-668
3905.868	-672
3908.442	-667
3911.015	-671
3913.586	-670
3916.155	-672
3918.722	-673
3921.287	-673
3923.85	-673
3926.411	-669
3928.971	-671
3931.528	-672
3934.084	-669
3936.638	-673
3939.19	-676
3941.74	-678
3944.288	-673
3946.834	-676
3949.378	-677
3951.921	-676
3954.462	-671
3957	-666
3959.537	-667
3962.072	-670
3964.606	-667
3967.137	-675
3969.667	-670
3972.194	-670
3974.72	-665
3977.244	-663
3979.766	-660
3982.286	-663
3984.805	-656
3987.321	-661
3989.836	-661
3992.349	-659
3994.86	-653
3997.369	-664
3999.877	-658
4002.382	-654
4004.886	-657
4007.388	-658
4009.888	-655
4012.386	-656
4014.883	-657
4017.377	-655
4019.87	-658
4022.361	-660
4024.85	-657
4027.338	-662
4029.823	-656
4032.307	-662
4034.789	-665
4037.269	-669
4039.747	-666
4042.224	-659
4044.699	-663
4047.172	-666
4049.643	-664
4052.112	-661
4054.58	-656
4057.046	-667
4059.51	-661
4061.972	-670
4064.432	-659
4066.891	-659
4069.348	-668
4071.803	-665
4074.256	-661
4076.708	-656
4079.158	-659
4081.606	-655
4084.052	-658
4086.497	-661
4088.939	-657
4091.38	-658
4093.819	-655
4096.257	-695
4098.693	-692
4101.127	-696
4103.559	-696
4105.989	-409
4108.418	-388
4110.845	-367
4113.27	-350
4115.694	-279
4118.115	-247
4120.535	-667
4122.954	-668
4125.37	-664
4127.785	-664
4130.198	-664
4132.609	-650
4135.019	-701
4137.427	-699
4139.833	-696
4142.237	-696
