Data from 2018-2-7_conc=2_RamanShift_23.txt Node
Date: Tue Feb 13 12:00:44 IST 2018
User: aro
Spectrometer: QEPB0276
Trigger mode: 0
Integration Time (sec): 3.000000E1
Scans to average: 1
Electric dark correction enabled: true
Nonlinearity correction enabled: false
Boxcar width: 0
XAxis mode: Raman Shifts
Number of Pixels in Spectrum: 1044
>>>>>Begin Spectral Data<<<<<
160.701	-141
166.742	25
172.777	550
178.805	2069
184.826	5666
190.841	11708
196.849	18540
202.85	23302
208.845	24697
214.833	24461
220.815	24054
226.789	23887
232.758	23739
238.719	23634
244.674	23207
250.623	22780
256.565	22280
262.5	21838
268.429	21430
274.351	21097
280.267	20844
286.176	20605
292.079	20403
297.975	20173
303.865	19980
309.748	19873
315.625	19697
321.495	19584
327.359	19502
333.217	19495
339.068	19533
344.912	19408
350.751	19460
356.583	19436
362.408	19373
368.227	19344
374.04	19419
379.847	19438
385.647	19550
391.44	19580
397.228	19632
403.009	19792
408.784	19817
414.553	19861
420.315	19936
426.071	19916
431.821	19890
437.565	19951
443.302	19845
449.033	19845
454.758	19843
460.477	19735
466.189	19713
471.896	19715
477.596	19585
483.29	19601
488.978	19610
494.66	19457
500.335	19406
506.005	19189
511.668	18966
517.325	18701
522.977	18582
528.622	18486
534.261	18398
539.894	18243
545.521	18190
551.141	18179
556.756	18036
562.365	17958
567.968	17890
573.565	17875
579.155	17835
584.74	17679
590.319	17689
595.892	17610
601.459	17571
607.02	17464
612.575	17343
618.124	17308
623.667	17134
629.204	17091
634.735	17008
640.261	16865
645.781	16851
651.294	16869
656.802	16784
662.304	16767
667.8	16789
673.29	16760
678.775	16753
684.254	16636
689.726	16620
695.193	16574
700.655	16459
706.11	16401
711.56	16362
717.004	16282
722.442	16180
727.874	16129
733.301	16029
738.722	16029
744.137	15997
749.547	16006
754.951	16017
760.349	15999
765.741	16024
771.128	16051
776.509	16049
781.885	16031
787.254	15987
792.618	15931
797.977	15852
803.33	15742
808.677	15626
814.019	15574
819.355	15463
824.686	15345
830.011	15407
835.33	15356
840.644	15407
845.952	15393
851.255	15488
856.552	15436
861.844	15431
867.13	15463
872.41	15332
877.686	15267
882.955	15160
888.219	14998
893.478	14931
898.731	14670
903.979	14593
909.221	14434
914.458	14370
919.69	14431
924.916	14438
930.136	14498
935.351	14462
940.561	14483
945.766	14443
950.965	14409
956.158	14325
961.347	14183
966.529	13945
971.707	13836
976.879	13696
982.046	13554
987.208	13497
992.364	13517
997.515	13588
1002.66	13758
1007.801	13910
1012.936	13919
1018.066	13954
1023.19	13980
1028.309	13972
1033.423	13947
1038.532	13849
1043.636	13728
1048.734	13581
1053.827	13419
1058.915	13234
1063.998	13183
1069.075	13138
1074.147	13189
1079.214	13184
1084.276	13329
1089.333	13422
1094.385	13414
1099.431	13470
1104.472	13474
1109.509	13418
1114.54	13214
1119.565	13049
1124.586	12945
1129.602	12849
1134.613	12711
1139.618	12677
1144.619	12604
1149.614	12594
1154.604	12669
1159.589	12683
1164.57	12705
1169.545	12662
1174.515	12693
1179.48	12677
1184.44	12545
1189.395	12486
1194.345	12380
1199.29	12316
1204.23	12350
1209.165	12411
1214.095	12418
1219.021	12527
1223.941	12580
1228.856	12626
1233.766	12726
1238.672	12718
1243.572	12692
1248.467	12638
1253.358	12455
1258.244	12303
1263.124	12116
1268	11930
1272.871	11855
1277.737	11762
1282.599	11687
1287.455	11668
1292.306	11730
1297.153	11744
1301.995	11791
1306.832	11798
1311.664	11834
1316.491	11801
1321.314	11628
1326.132	11470
1330.945	11298
1335.753	10977
1340.556	10731
1345.354	10495
1350.148	10315
1354.937	10288
1359.722	10268
1364.501	10324
1369.276	10463
1374.046	10562
1378.811	10729
1383.572	10845
1388.327	10882
1393.079	10837
1397.825	10667
1402.567	10512
1407.304	10402
1412.036	10292
1416.764	10237
1421.487	10172
1426.205	10102
1430.919	10084
1435.628	10106
1440.333	10096
1445.032	10132
1449.727	10189
1454.418	10113
1459.104	10030
1463.785	9828
1468.462	9631
1473.134	9405
1477.802	9278
1482.465	9096
1487.123	8995
1491.777	8978
1496.426	9029
1501.071	9101
1505.711	9244
1510.347	9358
1514.978	9592
1519.604	9686
1524.226	9774
1528.844	9809
1533.457	9817
1538.065	9720
1542.669	9743
1547.269	9601
1551.864	9559
1556.454	9548
1561.041	9482
1565.622	9500
1570.199	9537
1574.772	9629
1579.34	9630
1583.904	9708
1588.464	9754
1593.019	9730
1597.569	9718
1602.115	9675
1606.657	9559
1611.195	9544
1615.728	9490
1620.256	9441
1624.78	9366
1629.3	9436
1633.816	9445
1638.327	9467
1642.834	9536
1647.336	9579
1651.834	9600
1656.328	9578
1660.817	9525
1665.302	9417
1669.783	9259
1674.259	9042
1678.732	8777
1683.199	8463
1687.663	8171
1692.122	7945
1696.577	7855
1701.028	7829
1705.474	7863
1709.917	7998
1714.355	7991
1718.788	7959
1723.218	7851
1727.643	7672
1732.064	7579
1736.481	7385
1740.893	7212
1745.301	7005
1749.705	6816
1754.105	6650
1758.501	6470
1762.893	6290
1767.28	6149
1771.663	5966
1776.042	5887
1780.417	5842
1784.787	5830
1789.154	5895
1793.516	5987
1797.874	6099
1802.228	6241
1806.578	6306
1810.924	6315
1815.266	6237
1819.603	6130
1823.937	6067
1828.266	5978
1832.591	5890
1836.913	5777
1841.23	5758
1845.543	5703
1849.852	5681
1854.156	5650
1858.457	5650
1862.754	5654
1867.047	5614
1871.335	5619
1875.62	5625
1879.9	5574
1884.177	5544
1888.449	5487
1892.718	5456
1896.982	5367
1901.243	5356
1905.499	5307
1909.752	5263
1914	5289
1918.245	5270
1922.485	5330
1926.722	5408
1930.954	5425
1935.183	5515
1939.408	5569
1943.628	5614
1947.845	5612
1952.058	5612
1956.267	5544
1960.472	5497
1964.673	5359
1968.87	5349
1973.063	5259
1977.252	5174
1981.438	5140
1985.619	5053
1989.797	5035
1993.971	5000
1998.14	5010
2002.306	4976
2006.469	4935
2010.627	4925
2014.781	4917
2018.932	4845
2023.078	4773
2027.221	4719
2031.36	4676
2035.495	4568
2039.627	4518
2043.754	4467
2047.878	4437
2051.998	4365
2056.114	4381
2060.226	4401
2064.334	4365
2068.439	4394
2072.54	4418
2076.637	4444
2080.73	4498
2084.82	4478
2088.906	4510
2092.988	4510
2097.066	4538
2101.14	4479
2105.211	4465
2109.278	4438
2113.342	4399
2117.401	4371
2121.457	4351
2125.509	4338
2129.558	4307
2133.602	4281
2137.643	4247
2141.681	4242
2145.714	4228
2149.744	4234
2153.77	4190
2157.793	4128
2161.812	4087
2165.827	4030
2169.838	3947
2173.846	3914
2177.851	3826
2181.851	3783
2185.848	3729
2189.841	3704
2193.831	3667
2197.817	3622
2201.799	3601
2205.778	3607
2209.753	3577
2213.725	3567
2217.693	3583
2221.657	3572
2225.618	3564
2229.575	3515
2233.529	3495
2237.479	3485
2241.425	3417
2245.368	3391
2249.307	3348
2253.243	3293
2257.175	3293
2261.104	3211
2265.029	3149
2268.95	3123
2272.868	3142
2276.783	3070
2280.694	3050
2284.601	3036
2288.505	2995
2292.405	2961
2296.302	2955
2300.195	2916
2304.085	2899
2307.971	2860
2311.854	2781
2315.734	2770
2319.609	2723
2323.482	2687
2327.351	2656
2331.216	2665
2335.078	2613
2338.937	2625
2342.792	2613
2346.643	2596
2350.492	2632
2354.336	2620
2358.178	2617
2362.015	2654
2365.85	2631
2369.681	2622
2373.508	2633
2377.333	2622
2381.153	2596
2384.971	2613
2388.785	2592
2392.595	2573
2396.402	2543
2400.206	2542
2404.007	2523
2407.804	2498
2411.597	2482
2415.388	2455
2419.174	2441
2422.958	2433
2426.738	2417
2430.515	2366
2434.289	2370
2438.059	2331
2441.825	2344
2445.589	2319
2449.349	2302
2453.106	2267
2456.859	2234
2460.61	2190
2464.356	2184
2468.1	2156
2471.84	2143
2475.577	2122
2479.311	2117
2483.041	2094
2486.768	2082
2490.492	2082
2494.213	2076
2497.93	2078
2501.644	2069
2505.355	2047
2509.062	2048
2512.766	2019
2516.467	2014
2520.165	1991
2523.859	1979
2527.551	1957
2531.239	1947
2534.923	1946
2538.605	1925
2542.283	1939
2545.958	1912
2549.63	1906
2553.299	1912
2556.964	1917
2560.626	1909
2564.285	1923
2567.941	1901
2571.594	1868
2575.243	1878
2578.89	1859
2582.533	1842
2586.173	1821
2589.809	1822
2593.443	1797
2597.073	1781
2600.701	1778
2604.325	1743
2607.946	1743
2611.564	1750
2615.178	1738
2618.79	1718
2622.398	1691
2626.004	1682
2629.606	1659
2633.205	1630
2636.801	1624
2640.394	1609
2643.983	1574
2647.57	1564
2651.153	1552
2654.734	1505
2658.311	1499
2661.885	1480
2665.456	1467
2669.025	1449
2672.589	1410
2676.151	1385
2679.71	1382
2683.266	1365
2686.819	1326
2690.368	1315
2693.915	1280
2697.458	1243
2700.999	1236
2704.536	1214
2708.071	1185
2711.602	1162
2715.13	1123
2718.656	1114
2722.178	1083
2725.697	1058
2729.214	1054
2732.727	1029
2736.237	1057
2739.744	1028
2743.249	1026
2746.75	1039
2750.248	1069
2753.743	1054
2757.236	1071
2760.725	1070
2764.211	1082
2767.695	1075
2771.175	1108
2774.652	1081
2778.127	1086
2781.598	1066
2785.067	1093
2788.532	1061
2791.995	1051
2795.455	1057
2798.911	1081
2802.365	1069
2805.816	1064
2809.264	1065
2812.709	1056
2816.151	1054
2819.59	1066
2823.026	1058
2826.46	1049
2829.89	1073
2833.318	1054
2836.742	1070
2840.164	1073
2843.583	1084
2846.999	1081
2850.412	1090
2853.822	1109
2857.229	1124
2860.634	1120
2864.035	1172
2867.434	1171
2870.83	1191
2874.223	1208
2877.613	1235
2881	1247
2884.385	1261
2887.766	1247
2891.145	1245
2894.521	1224
2897.894	1241
2901.264	1230
2904.631	1241
2907.996	1231
2911.358	1233
2914.717	1239
2918.073	1230
2921.426	1247
2924.777	1275
2928.124	1288
2931.469	1334
2934.811	1334
2938.15	1356
2941.487	1355
2944.821	1360
2948.152	1346
2951.48	1351
2954.805	1343
2958.128	1321
2961.447	1277
2964.765	1293
2968.079	1291
2971.39	1322
2974.699	1332
2978.005	1334
2981.308	1366
2984.609	1380
2987.907	1418
2991.202	1443
2994.494	1468
2997.784	1484
3001.07	1518
3004.355	1508
3007.636	1545
3010.915	1573
3014.191	1601
3017.464	1595
3020.734	1616
3024.002	1623
3027.267	1621
3030.53	1640
3033.789	1656
3037.046	1670
3040.301	1693
3043.552	1728
3046.801	1753
3050.048	1812
3053.291	1855
3056.532	1912
3059.771	1946
3063.006	2014
3066.239	2046
3069.469	2118
3072.697	2165
3075.922	2229
3079.144	2274
3082.364	2319
3085.581	2368
3088.795	2424
3092.007	2462
3095.216	2496
3098.423	2590
3101.627	2619
3104.828	2687
3108.026	2716
3111.222	2783
3114.416	2851
3117.607	2932
3120.795	2993
3123.98	3060
3127.163	3126
3130.344	3200
3133.521	3273
3136.696	3312
3139.869	3377
3143.039	3464
3146.206	3481
3149.371	3571
3152.533	3567
3155.693	3604
3158.85	3633
3162.005	3623
3165.157	3624
3168.306	3658
3171.453	3674
3174.597	3700
3177.739	3675
3180.878	3672
3184.014	3672
3187.149	3714
3190.28	3683
3193.409	3675
3196.536	3689
3199.659	3711
3202.781	3696
3205.9	3701
3209.016	3716
3212.13	3684
3215.241	3652
3218.35	3633
3221.456	3584
3224.56	3555
3227.661	3502
3230.76	3489
3233.856	3427
3236.95	3392
3240.041	3345
3243.13	3344
3246.216	3324
3249.3	3304
3252.382	3289
3255.46	3256
3258.537	3269
3261.611	3257
3264.682	3251
3267.751	3255
3270.818	3278
3273.882	3225
3276.943	3247
3280.002	3206
3283.059	3165
3286.113	3139
3289.165	3073
3292.214	3049
3295.261	2996
3298.306	2940
3301.348	2897
3304.387	2848
3307.425	2790
3310.459	2767
3313.492	2723
3316.521	2696
3319.549	2652
3322.574	2646
3325.597	2595
3328.617	2586
3331.635	2586
3334.65	2565
3337.663	2573
3340.674	2535
3343.682	2539
3346.688	2533
3349.691	2507
3352.692	2497
3355.691	2479
3358.687	2453
3361.681	2432
3364.673	2402
3367.662	2378
3370.649	2312
3373.633	2285
3376.615	2267
3379.595	2225
3382.572	2179
3385.547	2157
3388.52	2108
3391.49	2090
3394.458	2056
3397.424	2036
3400.387	2001
3403.348	1986
3406.307	1932
3409.263	1957
3412.217	1918
3415.168	1884
3418.118	1864
3421.065	1825
3424.009	1798
3426.951	1779
3429.891	1740
3432.829	1716
3435.764	1654
3438.697	1614
3441.628	1580
3444.557	1537
3447.483	1499
3450.407	1444
3453.328	1384
3456.247	1334
3459.164	1318
3462.079	1245
3464.991	1207
3467.902	1156
3470.809	1131
3473.715	1081
3476.618	1031
3479.519	999
3482.418	967
3485.315	933
3488.209	883
3491.101	867
3493.99	849
3496.878	787
3499.763	767
3502.646	740
3505.527	702
3508.405	678
3511.281	643
3514.155	590
3517.027	548
3519.897	518
3522.764	483
3525.629	445
3528.492	407
3531.352	367
3534.211	333
3537.067	300
3539.921	266
3542.773	244
3545.622	222
3548.469	190
3551.315	159
3554.157	129
3556.998	100
3559.837	86
3562.673	62
3565.507	44
3568.339	23
3571.169	2
3573.996	-11
3576.822	-38
3579.645	-56
3582.466	-76
3585.285	-98
3588.101	-100
3590.916	-129
3593.728	-147
3596.538	-159
3599.346	-164
3602.152	-181
3604.956	-205
3607.757	-224
3610.556	-227
3613.354	-247
3616.149	-246
3618.942	-264
3621.732	-285
3624.521	-292
3627.307	-303
3630.092	-311
3632.874	-322
3635.654	-320
3638.432	-335
3641.208	-339
3643.982	-350
3646.753	-350
3649.523	-368
3652.29	-370
3655.055	-374
3657.818	-391
3660.579	-397
3663.338	-397
3666.095	-414
3668.849	-429
3671.602	-439
3674.352	-437
3677.101	-447
3679.847	-456
3682.591	-459
3685.333	-468
3688.073	-464
3690.811	-471
3693.547	-480
3696.281	-484
3699.013	-482
3701.742	-485
3704.47	-494
3707.195	-502
3709.919	-508
3712.64	-510
3715.359	-510
3718.076	-511
3720.792	-517
3723.505	-515
3726.216	-525
3728.925	-526
3731.632	-533
3734.336	-532
3737.039	-539
3739.74	-544
3742.439	-540
3745.136	-539
3747.83	-539
3750.523	-542
3753.213	-541
3755.902	-547
3758.589	-550
3761.273	-549
3763.956	-557
3766.636	-557
3769.315	-555
3771.991	-559
3774.665	-561
3777.338	-555
3780.008	-561
3782.677	-558
3785.343	-567
3788.007	-564
3790.67	-567
3793.33	-572
3795.989	-575
3798.645	-573
3801.299	-578
3803.952	-580
3806.602	-587
3809.251	-581
3811.897	-576
3814.542	-575
3817.184	-581
3819.825	-581
3822.463	-571
3825.1	-580
3827.735	-587
3830.367	-587
3832.998	-584
3835.627	-582
3838.253	-587
3840.878	-584
3843.501	-590
3846.122	-581
3848.741	-588
3851.358	-590
3853.973	-588
3856.586	-587
3859.197	-594
3861.806	-592
3864.414	-587
3867.019	-584
3869.622	-594
3872.224	-583
3874.823	-575
3877.421	-560
3880.016	-552
3882.61	-525
3885.202	-524
3887.792	-550
3890.38	-565
3892.966	-584
3895.55	-591
3898.132	-594
3900.713	-603
3903.291	-597
3905.868	-598
3908.442	-597
3911.015	-603
3913.586	-600
3916.155	-603
3918.722	-597
3921.287	-604
3923.85	-601
3926.411	-602
3928.971	-602
3931.528	-602
3934.084	-590
3936.638	-600
3939.19	-609
3941.74	-610
3944.288	-605
3946.834	-609
3949.378	-609
3951.921	-605
3954.462	-605
3957	-602
3959.537	-600
3962.072	-594
3964.606	-598
3967.137	-600
3969.667	-598
3972.194	-597
3974.72	-600
3977.244	-591
3979.766	-589
3982.286	-592
3984.805	-588
3987.321	-593
3989.836	-592
3992.349	-593
3994.86	-591
3997.369	-600
3999.877	-593
4002.382	-585
4004.886	-599
4007.388	-591
4009.888	-594
4012.386	-587
4014.883	-585
4017.377	-590
4019.87	-586
4022.361	-592
4024.85	-593
4027.338	-593
4029.823	-590
4032.307	-594
4034.789	-597
4037.269	-599
4039.747	-599
4042.224	-590
4044.699	-602
4047.172	-600
4049.643	-598
4052.112	-595
4054.58	-593
4057.046	-596
4059.51	-598
4061.972	-603
4064.432	-594
4066.891	-592
4069.348	-599
4071.803	-595
4074.256	-592
4076.708	-593
4079.158	-591
4081.606	-589
4084.052	-587
4086.497	-593
4088.939	-585
4091.38	-588
4093.819	-592
4096.257	-624
4098.693	-627
4101.127	-628
4103.559	-631
4105.989	-382
4108.418	-363
4110.845	-339
4113.27	-315
4115.694	-277
4118.115	-228
4120.535	-597
4122.954	-598
4125.37	-594
4127.785	-598
4130.198	-599
4132.609	-588
4135.019	-631
4137.427	-625
4139.833	-623
4142.237	-624
