Data from 2018-2-7_conc=2_RamanShift_16.txt Node
Date: Tue Feb 13 11:55:14 IST 2018
User: aro
Spectrometer: QEPB0276
Trigger mode: 0
Integration Time (sec): 3.000000E1
Scans to average: 1
Electric dark correction enabled: true
Nonlinearity correction enabled: false
Boxcar width: 0
XAxis mode: Raman Shifts
Number of Pixels in Spectrum: 1044
>>>>>Begin Spectral Data<<<<<
160.701	-152
166.742	27
172.777	552
178.805	2106
184.826	5769
190.841	11933
196.849	18895
202.85	23619
208.845	25188
214.833	24745
220.815	24311
226.789	24131
232.758	24003
238.719	23778
244.674	23430
250.623	22981
256.565	22455
262.5	21971
268.429	21523
274.351	21116
280.267	20923
286.176	20638
292.079	20420
297.975	20191
303.865	20037
309.748	19847
315.625	19632
321.495	19605
327.359	19532
333.217	19457
339.068	19444
344.912	19406
350.751	19463
356.583	19324
362.408	19360
368.227	19305
374.04	19379
379.847	19435
385.647	19550
391.44	19569
397.228	19621
403.009	19731
408.784	19808
414.553	19837
420.315	19942
426.071	19958
431.821	19905
437.565	19915
443.302	19859
449.033	19771
454.758	19747
460.477	19726
466.189	19716
471.896	19680
477.596	19598
483.29	19558
488.978	19549
494.66	19458
500.335	19306
506.005	19080
511.668	18926
517.325	18678
522.977	18432
528.622	18382
534.261	18304
539.894	18138
545.521	18053
551.141	18028
556.756	17920
562.365	17890
567.968	17791
573.565	17737
579.155	17736
584.74	17592
590.319	17501
595.892	17503
601.459	17395
607.02	17325
612.575	17273
618.124	17120
623.667	17054
629.204	16914
634.735	16850
640.261	16778
645.781	16752
651.294	16716
656.802	16693
662.304	16689
667.8	16641
673.29	16635
678.775	16563
684.254	16486
689.726	16413
695.193	16405
700.655	16368
706.11	16245
711.56	16195
717.004	16104
722.442	16039
727.874	15969
733.301	15922
738.722	15875
744.137	15848
749.547	15833
754.951	15837
760.349	15843
765.741	15892
771.128	15882
776.509	15872
781.885	15852
787.254	15766
792.618	15797
797.977	15673
803.33	15551
808.677	15476
814.019	15358
819.355	15352
824.686	15229
830.011	15243
835.33	15158
840.644	15241
845.952	15258
851.255	15297
856.552	15334
861.844	15239
867.13	15225
872.41	15190
877.686	15119
882.955	15008
888.219	14845
893.478	14662
898.731	14498
903.979	14375
909.221	14219
914.458	14200
919.69	14212
924.916	14232
930.136	14288
935.351	14324
940.561	14354
945.766	14288
950.965	14214
956.158	14105
961.347	13927
966.529	13791
971.707	13646
976.879	13489
982.046	13384
987.208	13284
992.364	13354
997.515	13372
1002.66	13510
1007.801	13684
1012.936	13763
1018.066	13764
1023.19	13755
1028.309	13762
1033.423	13714
1038.532	13674
1043.636	13541
1048.734	13371
1053.827	13221
1058.915	13041
1063.998	12980
1069.075	12976
1074.147	13009
1079.214	13053
1084.276	13143
1089.333	13174
1094.385	13285
1099.431	13273
1104.472	13295
1109.509	13211
1114.54	13052
1119.565	12905
1124.586	12742
1129.602	12595
1134.613	12545
1139.618	12472
1144.619	12408
1149.614	12393
1154.604	12445
1159.589	12489
1164.57	12499
1169.545	12542
1174.515	12544
1179.48	12462
1184.44	12405
1189.395	12289
1194.345	12157
1199.29	12066
1204.23	12156
1209.165	12208
1214.095	12229
1219.021	12307
1223.941	12362
1228.856	12464
1233.766	12483
1238.672	12503
1243.572	12484
1248.467	12442
1253.358	12317
1258.244	12054
1263.124	11917
1268	11757
1272.871	11595
1277.737	11496
1282.599	11461
1287.455	11512
1292.306	11449
1297.153	11531
1301.995	11602
1306.832	11639
1311.664	11618
1316.491	11574
1321.314	11539
1326.132	11301
1330.945	11086
1335.753	10785
1340.556	10499
1345.354	10278
1350.148	10185
1354.937	10028
1359.722	10107
1364.501	10157
1369.276	10257
1374.046	10390
1378.811	10516
1383.572	10627
1388.327	10686
1393.079	10674
1397.825	10466
1402.567	10352
1407.304	10274
1412.036	10089
1416.764	10032
1421.487	10031
1426.205	9912
1430.919	9933
1435.628	9875
1440.333	9978
1445.032	9970
1449.727	9969
1454.418	9960
1459.104	9850
1463.785	9666
1468.462	9473
1473.134	9265
1477.802	9044
1482.465	8889
1487.123	8811
1491.777	8790
1496.426	8809
1501.071	8927
1505.711	9063
1510.347	9206
1514.978	9375
1519.604	9516
1524.226	9590
1528.844	9630
1533.457	9581
1538.065	9553
1542.669	9500
1547.269	9431
1551.864	9359
1556.454	9300
1561.041	9370
1565.622	9317
1570.199	9381
1574.772	9399
1579.34	9460
1583.904	9546
1588.464	9606
1593.019	9582
1597.569	9537
1602.115	9483
1606.657	9411
1611.195	9399
1615.728	9348
1620.256	9299
1624.78	9264
1629.3	9261
1633.816	9331
1638.327	9374
1642.834	9408
1647.336	9469
1651.834	9521
1656.328	9443
1660.817	9406
1665.302	9278
1669.783	9092
1674.259	8932
1678.732	8647
1683.199	8321
1687.663	8069
1692.122	7792
1696.577	7675
1701.028	7702
1705.474	7708
1709.917	7789
1714.355	7773
1718.788	7770
1723.218	7621
1727.643	7501
1732.064	7376
1736.481	7241
1740.893	7041
1745.301	6817
1749.705	6660
1754.105	6465
1758.501	6306
1762.893	6099
1767.28	5929
1771.663	5807
1776.042	5744
1780.417	5715
1784.787	5674
1789.154	5714
1793.516	5824
1797.874	5965
1802.228	6072
1806.578	6102
1810.924	6105
1815.266	6075
1819.603	5962
1823.937	5906
1828.266	5760
1832.591	5683
1836.913	5634
1841.23	5537
1845.543	5553
1849.852	5510
1854.156	5507
1858.457	5472
1862.754	5458
1867.047	5458
1871.335	5453
1875.62	5439
1879.9	5438
1884.177	5402
1888.449	5324
1892.718	5273
1896.982	5204
1901.243	5146
1905.499	5125
1909.752	5105
1914	5119
1918.245	5130
1922.485	5147
1926.722	5213
1930.954	5289
1935.183	5353
1939.408	5381
1943.628	5397
1947.845	5409
1952.058	5422
1956.267	5405
1960.472	5317
1964.673	5238
1968.87	5162
1973.063	5073
1977.252	5023
1981.438	4958
1985.619	4923
1989.797	4917
1993.971	4842
1998.14	4822
2002.306	4821
2006.469	4820
2010.627	4766
2014.781	4749
2018.932	4719
2023.078	4669
2027.221	4617
2031.36	4504
2035.495	4452
2039.627	4365
2043.754	4320
2047.878	4287
2051.998	4255
2056.114	4252
2060.226	4255
2064.334	4274
2068.439	4259
2072.54	4342
2076.637	4319
2080.73	4341
2084.82	4414
2088.906	4406
2092.988	4363
2097.066	4386
2101.14	4311
2105.211	4308
2109.278	4298
2113.342	4289
2117.401	4251
2121.457	4229
2125.509	4215
2129.558	4180
2133.602	4132
2137.643	4149
2141.681	4125
2145.714	4096
2149.744	4061
2153.77	4040
2157.793	4014
2161.812	3974
2165.827	3911
2169.838	3841
2173.846	3802
2177.851	3719
2181.851	3674
2185.848	3633
2189.841	3579
2193.831	3552
2197.817	3526
2201.799	3500
2205.778	3494
2209.753	3489
2213.725	3461
2217.693	3457
2221.657	3461
2225.618	3460
2229.575	3415
2233.529	3381
2237.479	3352
2241.425	3354
2245.368	3270
2249.307	3220
2253.243	3206
2257.175	3139
2261.104	3128
2265.029	3077
2268.95	3030
2272.868	2974
2276.783	2978
2280.694	2952
2284.601	2910
2288.505	2909
2292.405	2876
2296.302	2836
2300.195	2798
2304.085	2783
2307.971	2731
2311.854	2711
2315.734	2660
2319.609	2626
2323.482	2598
2327.351	2563
2331.216	2554
2335.078	2554
2338.937	2538
2342.792	2528
2346.643	2505
2350.492	2519
2354.336	2501
2358.178	2515
2362.015	2522
2365.85	2533
2369.681	2536
2373.508	2531
2377.333	2519
2381.153	2528
2384.971	2522
2388.785	2481
2392.595	2452
2396.402	2433
2400.206	2410
2404.007	2410
2407.804	2394
2411.597	2348
2415.388	2386
2419.174	2350
2422.958	2356
2426.738	2329
2430.515	2302
2434.289	2287
2438.059	2270
2441.825	2231
2445.589	2223
2449.349	2200
2453.106	2143
2456.859	2133
2460.61	2102
2464.356	2082
2468.1	2072
2471.84	2053
2475.577	2024
2479.311	2017
2483.041	2005
2486.768	2008
2490.492	2007
2494.213	1985
2497.93	1981
2501.644	1969
2505.355	1969
2509.062	1949
2512.766	1950
2516.467	1921
2520.165	1915
2523.859	1900
2527.551	1894
2531.239	1872
2534.923	1877
2538.605	1822
2542.283	1851
2545.958	1849
2549.63	1839
2553.299	1844
2556.964	1829
2560.626	1816
2564.285	1833
2567.941	1801
2571.594	1805
2575.243	1797
2578.89	1785
2582.533	1759
2586.173	1765
2589.809	1717
2593.443	1720
2597.073	1683
2600.701	1693
2604.325	1669
2607.946	1659
2611.564	1658
2615.178	1658
2618.79	1626
2622.398	1621
2626.004	1603
2629.606	1578
2633.205	1560
2636.801	1553
2640.394	1528
2643.983	1516
2647.57	1483
2651.153	1482
2654.734	1436
2658.311	1423
2661.885	1410
2665.456	1375
2669.025	1363
2672.589	1349
2676.151	1334
2679.71	1329
2683.266	1307
2686.819	1264
2690.368	1239
2693.915	1244
2697.458	1197
2700.999	1172
2704.536	1159
2708.071	1103
2711.602	1102
2715.13	1073
2718.656	1051
2722.178	1026
2725.697	1024
2729.214	998
2732.727	1003
2736.237	996
2739.744	992
2743.249	993
2746.75	980
2750.248	1004
2753.743	1003
2757.236	1023
2760.725	1037
2764.211	1056
2767.695	1045
2771.175	1052
2774.652	1032
2778.127	1036
2781.598	1015
2785.067	1033
2788.532	1019
2791.995	1026
2795.455	1009
2798.911	1008
2802.365	1032
2805.816	1022
2809.264	1022
2812.709	1014
2816.151	1015
2819.59	1017
2823.026	1018
2826.46	1019
2829.89	1006
2833.318	1028
2836.742	1039
2840.164	1053
2843.583	1046
2846.999	1040
2850.412	1062
2853.822	1087
2857.229	1089
2860.634	1091
2864.035	1130
2867.434	1143
2870.83	1150
2874.223	1189
2877.613	1193
2881	1197
2884.385	1213
2887.766	1214
2891.145	1204
2894.521	1183
2897.894	1207
2901.264	1220
2904.631	1201
2907.996	1224
2911.358	1230
2914.717	1233
2918.073	1225
2921.426	1269
2924.777	1271
2928.124	1284
2931.469	1290
2934.811	1320
2938.15	1331
2941.487	1357
2944.821	1351
2948.152	1340
2951.48	1349
2954.805	1339
2958.128	1323
2961.447	1322
2964.765	1306
2968.079	1305
2971.39	1326
2974.699	1337
2978.005	1353
2981.308	1376
2984.609	1391
2987.907	1423
2991.202	1457
2994.494	1473
2997.784	1504
3001.07	1531
3004.355	1541
3007.636	1563
3010.915	1580
3014.191	1589
3017.464	1626
3020.734	1631
3024.002	1627
3027.267	1656
3030.53	1669
3033.789	1693
3037.046	1701
3040.301	1734
3043.552	1747
3046.801	1796
3050.048	1823
3053.291	1864
3056.532	1940
3059.771	1987
3063.006	2049
3066.239	2085
3069.469	2174
3072.697	2218
3075.922	2269
3079.144	2326
3082.364	2379
3085.581	2424
3088.795	2491
3092.007	2528
3095.216	2580
3098.423	2642
3101.627	2663
3104.828	2753
3108.026	2810
3111.222	2881
3114.416	2938
3117.607	2995
3120.795	3078
3123.98	3138
3127.163	3206
3130.344	3290
3133.521	3363
3136.696	3451
3139.869	3493
3143.039	3580
3146.206	3613
3149.371	3689
3152.533	3718
3155.693	3733
3158.85	3743
3162.005	3761
3165.157	3749
3168.306	3754
3171.453	3765
3174.597	3832
3177.739	3808
3180.878	3812
3184.014	3806
3187.149	3826
3190.28	3826
3193.409	3845
3196.536	3828
3199.659	3835
3202.781	3826
3205.9	3817
3209.016	3827
3212.13	3786
3215.241	3811
3218.35	3734
3221.456	3694
3224.56	3660
3227.661	3639
3230.76	3590
3233.856	3551
3236.95	3525
3240.041	3476
3243.13	3447
3246.216	3438
3249.3	3412
3252.382	3409
3255.46	3388
3258.537	3397
3261.611	3372
3264.682	3377
3267.751	3371
3270.818	3349
3273.882	3369
3276.943	3317
3280.002	3308
3283.059	3278
3286.113	3254
3289.165	3198
3292.214	3168
3295.261	3118
3298.306	3066
3301.348	2997
3304.387	2957
3307.425	2903
3310.459	2872
3313.492	2828
3316.521	2808
3319.549	2791
3322.574	2716
3325.597	2709
3328.617	2688
3331.635	2661
3334.65	2650
3337.663	2624
3340.674	2617
3343.682	2633
3346.688	2622
3349.691	2588
3352.692	2597
3355.691	2562
3358.687	2526
3361.681	2527
3364.673	2480
3367.662	2455
3370.649	2403
3373.633	2378
3376.615	2355
3379.595	2307
3382.572	2285
3385.547	2236
3388.52	2221
3391.49	2169
3394.458	2137
3397.424	2096
3400.387	2077
3403.348	2053
3406.307	2013
3409.263	2008
3412.217	1980
3415.168	1968
3418.118	1951
3421.065	1911
3424.009	1900
3426.951	1872
3429.891	1813
3432.829	1769
3435.764	1749
3438.697	1687
3441.628	1638
3444.557	1599
3447.483	1546
3450.407	1514
3453.328	1431
3456.247	1412
3459.164	1343
3462.079	1301
3464.991	1261
3467.902	1203
3470.809	1185
3473.715	1105
3476.618	1077
3479.519	1039
3482.418	1024
3485.315	970
3488.209	904
3491.101	893
3493.99	879
3496.878	833
3499.763	802
3502.646	763
3505.527	739
3508.405	688
3511.281	661
3514.155	618
3517.027	568
3519.897	545
3522.764	500
3525.629	473
3528.492	434
3531.352	367
3534.211	351
3537.067	312
3539.921	292
3542.773	273
3545.622	209
3548.469	191
3551.315	165
3554.157	146
3556.998	120
3559.837	86
3562.673	75
3565.507	52
3568.339	34
3571.169	19
3573.996	0
3576.822	-20
3579.645	-50
3582.466	-72
3585.285	-77
3588.101	-93
3590.916	-111
3593.728	-130
3596.538	-151
3599.346	-164
3602.152	-187
3604.956	-199
3607.757	-224
3610.556	-229
3613.354	-245
3616.149	-256
3618.942	-260
3621.732	-280
3624.521	-294
3627.307	-304
3630.092	-311
3632.874	-315
3635.654	-327
3638.432	-329
3641.208	-343
3643.982	-349
3646.753	-357
3649.523	-370
3652.29	-381
3655.055	-379
3657.818	-392
3660.579	-396
3663.338	-400
3666.095	-417
3668.849	-426
3671.602	-436
3674.352	-436
3677.101	-447
3679.847	-456
3682.591	-452
3685.333	-464
3688.073	-467
3690.811	-478
3693.547	-474
3696.281	-488
3699.013	-482
3701.742	-502
3704.47	-501
3707.195	-510
3709.919	-509
3712.64	-515
3715.359	-512
3718.076	-518
3720.792	-521
3723.505	-519
3726.216	-528
3728.925	-530
3731.632	-538
3734.336	-539
3737.039	-548
3739.74	-543
3742.439	-549
3745.136	-549
3747.83	-554
3750.523	-544
3753.213	-551
3755.902	-549
3758.589	-553
3761.273	-554
3763.956	-562
3766.636	-557
3769.315	-563
3771.991	-562
3774.665	-564
3777.338	-568
3780.008	-563
3782.677	-566
3785.343	-578
3788.007	-568
3790.67	-571
3793.33	-579
3795.989	-583
3798.645	-578
3801.299	-588
3803.952	-583
3806.602	-582
3809.251	-579
3811.897	-576
3814.542	-576
3817.184	-582
3819.825	-576
3822.463	-581
3825.1	-586
3827.735	-587
3830.367	-587
3832.998	-588
3835.627	-596
3838.253	-594
3840.878	-590
3843.501	-592
3846.122	-589
3848.741	-593
3851.358	-600
3853.973	-585
3856.586	-588
3859.197	-591
3861.806	-596
3864.414	-590
3867.019	-587
3869.622	-591
3872.224	-590
3874.823	-579
3877.421	-560
3880.016	-544
3882.61	-520
3885.202	-523
3887.792	-555
3890.38	-569
3892.966	-586
3895.55	-590
3898.132	-602
3900.713	-603
3903.291	-604
3905.868	-604
3908.442	-604
3911.015	-605
3913.586	-600
3916.155	-608
3918.722	-602
3921.287	-603
3923.85	-607
3926.411	-606
3928.971	-608
3931.528	-610
3934.084	-605
3936.638	-608
3939.19	-610
3941.74	-615
3944.288	-610
3946.834	-612
3949.378	-611
3951.921	-613
3954.462	-606
3957	-602
3959.537	-600
3962.072	-605
3964.606	-607
3967.137	-611
3969.667	-604
3972.194	-600
3974.72	-604
3977.244	-598
3979.766	-596
3982.286	-598
3984.805	-592
3987.321	-595
3989.836	-598
3992.349	-599
3994.86	-593
3997.369	-605
3999.877	-597
4002.382	-590
4004.886	-598
4007.388	-596
4009.888	-592
4012.386	-595
4014.883	-592
4017.377	-590
4019.87	-595
4022.361	-599
4024.85	-599
4027.338	-598
4029.823	-599
4032.307	-601
4034.789	-598
4037.269	-604
4039.747	-601
4042.224	-597
4044.699	-601
4047.172	-597
4049.643	-598
4052.112	-594
4054.58	-594
4057.046	-603
4059.51	-600
4061.972	-606
4064.432	-600
4066.891	-598
4069.348	-606
4071.803	-603
4074.256	-596
4076.708	-595
4079.158	-604
4081.606	-596
4084.052	-597
4086.497	-599
4088.939	-587
4091.38	-589
4093.819	-589
4096.257	-632
4098.693	-631
4101.127	-635
4103.559	-627
4105.989	-372
4108.418	-354
4110.845	-338
4113.27	-316
4115.694	-272
4118.115	-224
4120.535	-598
4122.954	-604
4125.37	-598
4127.785	-601
4130.198	-598
4132.609	-593
4135.019	-634
4137.427	-634
4139.833	-635
4142.237	-630
