Data from 2018-2-7_conc=2_RamanShift_14.txt Node
Date: Tue Feb 13 11:53:44 IST 2018
User: aro
Spectrometer: QEPB0276
Trigger mode: 0
Integration Time (sec): 3.000000E1
Scans to average: 1
Electric dark correction enabled: true
Nonlinearity correction enabled: false
Boxcar width: 0
XAxis mode: Raman Shifts
Number of Pixels in Spectrum: 1044
>>>>>Begin Spectral Data<<<<<
160.701	-150
166.742	22
172.777	575
178.805	2166
184.826	5929
190.841	12184
196.849	19287
202.85	24151
208.845	25622
214.833	25304
220.815	24849
226.789	24730
232.758	24639
238.719	24409
244.674	24054
250.623	23581
256.565	23149
262.5	22636
268.429	22231
274.351	21878
280.267	21575
286.176	21318
292.079	21112
297.975	20874
303.865	20752
309.748	20559
315.625	20452
321.495	20299
327.359	20204
333.217	20167
339.068	20199
344.912	20197
350.751	20149
356.583	20113
362.408	20076
368.227	20046
374.04	20042
379.847	20089
385.647	20244
391.44	20317
397.228	20435
403.009	20453
408.784	20547
414.553	20607
420.315	20680
426.071	20693
431.821	20703
437.565	20645
443.302	20677
449.033	20589
454.758	20562
460.477	20546
466.189	20455
471.896	20414
477.596	20319
483.29	20317
488.978	20315
494.66	20202
500.335	20089
506.005	19861
511.668	19686
517.325	19436
522.977	19276
528.622	19115
534.261	18994
539.894	18874
545.521	18868
551.141	18821
556.756	18717
562.365	18671
567.968	18587
573.565	18553
579.155	18448
584.74	18369
590.319	18348
595.892	18196
601.459	18138
607.02	18096
612.575	18001
618.124	17953
623.667	17764
629.204	17710
634.735	17624
640.261	17531
645.781	17513
651.294	17466
656.802	17385
662.304	17398
667.8	17349
673.29	17396
678.775	17330
684.254	17242
689.726	17204
695.193	17149
700.655	17070
706.11	16978
711.56	16876
717.004	16803
722.442	16758
727.874	16691
733.301	16581
738.722	16544
744.137	16581
749.547	16541
754.951	16533
760.349	16532
765.741	16548
771.128	16565
776.509	16588
781.885	16533
787.254	16495
792.618	16475
797.977	16401
803.33	16285
808.677	16212
814.019	16076
819.355	15979
824.686	15921
830.011	15867
835.33	15913
840.644	15958
845.952	15930
851.255	15953
856.552	15995
861.844	15999
867.13	16002
872.41	15909
877.686	15804
882.955	15684
888.219	15559
893.478	15412
898.731	15245
903.979	15023
909.221	14944
914.458	14846
919.69	14872
924.916	14926
930.136	14967
935.351	15031
940.561	15013
945.766	14967
950.965	14884
956.158	14788
961.347	14614
966.529	14447
971.707	14233
976.879	14109
982.046	14002
987.208	13999
992.364	13957
997.515	13994
1002.66	14165
1007.801	14352
1012.936	14473
1018.066	14468
1023.19	14400
1028.309	14444
1033.423	14395
1038.532	14281
1043.636	14202
1048.734	14023
1053.827	13837
1058.915	13700
1063.998	13601
1069.075	13581
1074.147	13564
1079.214	13659
1084.276	13740
1089.333	13842
1094.385	13881
1099.431	13922
1104.472	13884
1109.509	13812
1114.54	13660
1119.565	13508
1124.586	13350
1129.602	13211
1134.613	13140
1139.618	13022
1144.619	12991
1149.614	13056
1154.604	13037
1159.589	13129
1164.57	13126
1169.545	13089
1174.515	13121
1179.48	13058
1184.44	12962
1189.395	12908
1194.345	12758
1199.29	12744
1204.23	12667
1209.165	12787
1214.095	12869
1219.021	12923
1223.941	12963
1228.856	13045
1233.766	13090
1238.672	13088
1243.572	13082
1248.467	12980
1253.358	12791
1258.244	12683
1263.124	12477
1268	12342
1272.871	12160
1277.737	12081
1282.599	12015
1287.455	12047
1292.306	12087
1297.153	12113
1301.995	12121
1306.832	12150
1311.664	12154
1316.491	12153
1321.314	12013
1326.132	11793
1330.945	11548
1335.753	11294
1340.556	11012
1345.354	10764
1350.148	10613
1354.937	10527
1359.722	10504
1364.501	10554
1369.276	10709
1374.046	10873
1378.811	10990
1383.572	11112
1388.327	11158
1393.079	11106
1397.825	11013
1402.567	10810
1407.304	10770
1412.036	10639
1416.764	10500
1421.487	10480
1426.205	10401
1430.919	10319
1435.628	10369
1440.333	10355
1445.032	10382
1449.727	10425
1454.418	10430
1459.104	10287
1463.785	10115
1468.462	9865
1473.134	9659
1477.802	9455
1482.465	9272
1487.123	9194
1491.777	9154
1496.426	9206
1501.071	9332
1505.711	9464
1510.347	9648
1514.978	9779
1519.604	9913
1524.226	10035
1528.844	10040
1533.457	10041
1538.065	9982
1542.669	9936
1547.269	9869
1551.864	9830
1556.454	9788
1561.041	9785
1565.622	9770
1570.199	9745
1574.772	9834
1579.34	9877
1583.904	9933
1588.464	9940
1593.019	9951
1597.569	9924
1602.115	9836
1606.657	9793
1611.195	9782
1615.728	9722
1620.256	9644
1624.78	9643
1629.3	9659
1633.816	9688
1638.327	9744
1642.834	9751
1647.336	9796
1651.834	9775
1656.328	9766
1660.817	9745
1665.302	9595
1669.783	9472
1674.259	9277
1678.732	8974
1683.199	8646
1687.663	8351
1692.122	8150
1696.577	8007
1701.028	8006
1705.474	8031
1709.917	8179
1714.355	8193
1718.788	8108
1723.218	8044
1727.643	7864
1732.064	7703
1736.481	7537
1740.893	7392
1745.301	7165
1749.705	6971
1754.105	6748
1758.501	6577
1762.893	6412
1767.28	6271
1771.663	6100
1776.042	6013
1780.417	6005
1784.787	5936
1789.154	6044
1793.516	6095
1797.874	6194
1802.228	6342
1806.578	6383
1810.924	6393
1815.266	6388
1819.603	6273
1823.937	6186
1828.266	6046
1832.591	5927
1836.913	5894
1841.23	5818
1845.543	5806
1849.852	5778
1854.156	5750
1858.457	5749
1862.754	5734
1867.047	5693
1871.335	5688
1875.62	5679
1879.9	5684
1884.177	5637
1888.449	5593
1892.718	5528
1896.982	5468
1901.243	5421
1905.499	5350
1909.752	5364
1914	5356
1918.245	5362
1922.485	5383
1926.722	5466
1930.954	5516
1935.183	5557
1939.408	5640
1943.628	5653
1947.845	5673
1952.058	5667
1956.267	5620
1960.472	5578
1964.673	5481
1968.87	5375
1973.063	5317
1977.252	5264
1981.438	5205
1985.619	5142
1989.797	5114
1993.971	5089
1998.14	5017
2002.306	5054
2006.469	5041
2010.627	4970
2014.781	4977
2018.932	4897
2023.078	4878
2027.221	4812
2031.36	4727
2035.495	4648
2039.627	4573
2043.754	4525
2047.878	4484
2051.998	4442
2056.114	4432
2060.226	4423
2064.334	4420
2068.439	4420
2072.54	4460
2076.637	4511
2080.73	4498
2084.82	4548
2088.906	4546
2092.988	4569
2097.066	4550
2101.14	4538
2105.211	4507
2109.278	4490
2113.342	4484
2117.401	4431
2121.457	4393
2125.509	4365
2129.558	4351
2133.602	4323
2137.643	4295
2141.681	4294
2145.714	4281
2149.744	4224
2153.77	4194
2157.793	4172
2161.812	4096
2165.827	4046
2169.838	4031
2173.846	3920
2177.851	3853
2181.851	3826
2185.848	3764
2189.841	3748
2193.831	3698
2197.817	3669
2201.799	3641
2205.778	3637
2209.753	3645
2213.725	3614
2217.693	3597
2221.657	3597
2225.618	3589
2229.575	3565
2233.529	3535
2237.479	3495
2241.425	3453
2245.368	3416
2249.307	3379
2253.243	3312
2257.175	3290
2261.104	3242
2265.029	3184
2268.95	3162
2272.868	3127
2276.783	3087
2280.694	3051
2284.601	3038
2288.505	3022
2292.405	2983
2296.302	2965
2300.195	2937
2304.085	2887
2307.971	2824
2311.854	2810
2315.734	2763
2319.609	2764
2323.482	2699
2327.351	2687
2331.216	2656
2335.078	2654
2338.937	2651
2342.792	2635
2346.643	2608
2350.492	2609
2354.336	2609
2358.178	2624
2362.015	2644
2365.85	2619
2369.681	2650
2373.508	2628
2377.333	2622
2381.153	2647
2384.971	2597
2388.785	2606
2392.595	2555
2396.402	2531
2400.206	2533
2404.007	2510
2407.804	2502
2411.597	2465
2415.388	2470
2419.174	2433
2422.958	2437
2426.738	2420
2430.515	2390
2434.289	2345
2438.059	2350
2441.825	2342
2445.589	2306
2449.349	2282
2453.106	2258
2456.859	2248
2460.61	2202
2464.356	2164
2468.1	2147
2471.84	2133
2475.577	2110
2479.311	2103
2483.041	2089
2486.768	2103
2490.492	2082
2494.213	2075
2497.93	2046
2501.644	2050
2505.355	2043
2509.062	2028
2512.766	2019
2516.467	1979
2520.165	1999
2523.859	1961
2527.551	1951
2531.239	1943
2534.923	1918
2538.605	1904
2542.283	1914
2545.958	1924
2549.63	1921
2553.299	1889
2556.964	1902
2560.626	1870
2564.285	1903
2567.941	1893
2571.594	1860
2575.243	1866
2578.89	1849
2582.533	1829
2586.173	1805
2589.809	1785
2593.443	1779
2597.073	1759
2600.701	1768
2604.325	1734
2607.946	1729
2611.564	1722
2615.178	1734
2618.79	1693
2622.398	1678
2626.004	1638
2629.606	1636
2633.205	1595
2636.801	1613
2640.394	1597
2643.983	1575
2647.57	1531
2651.153	1534
2654.734	1493
2658.311	1482
2661.885	1470
2665.456	1419
2669.025	1418
2672.589	1386
2676.151	1396
2679.71	1346
2683.266	1342
2686.819	1321
2690.368	1287
2693.915	1267
2697.458	1232
2700.999	1211
2704.536	1181
2708.071	1155
2711.602	1128
2715.13	1104
2718.656	1086
2722.178	1060
2725.697	1059
2729.214	1042
2732.727	1034
2736.237	1019
2739.744	1018
2743.249	1023
2746.75	1026
2750.248	1029
2753.743	1036
2757.236	1057
2760.725	1059
2764.211	1075
2767.695	1077
2771.175	1081
2774.652	1071
2778.127	1093
2781.598	1043
2785.067	1057
2788.532	1029
2791.995	1055
2795.455	1045
2798.911	1049
2802.365	1041
2805.816	1050
2809.264	1038
2812.709	1044
2816.151	1021
2819.59	1035
2823.026	1051
2826.46	1019
2829.89	1050
2833.318	1051
2836.742	1031
2840.164	1056
2843.583	1054
2846.999	1069
2850.412	1079
2853.822	1096
2857.229	1111
2860.634	1121
2864.035	1129
2867.434	1151
2870.83	1159
2874.223	1205
2877.613	1218
2881	1231
2884.385	1235
2887.766	1231
2891.145	1237
2894.521	1229
2897.894	1207
2901.264	1229
2904.631	1223
2907.996	1226
2911.358	1236
2914.717	1231
2918.073	1222
2921.426	1245
2924.777	1273
2928.124	1298
2931.469	1313
2934.811	1342
2938.15	1346
2941.487	1371
2944.821	1373
2948.152	1355
2951.48	1350
2954.805	1344
2958.128	1316
2961.447	1305
2964.765	1302
2968.079	1315
2971.39	1314
2974.699	1336
2978.005	1344
2981.308	1371
2984.609	1409
2987.907	1407
2991.202	1439
2994.494	1470
2997.784	1503
3001.07	1553
3004.355	1550
3007.636	1567
3010.915	1598
3014.191	1609
3017.464	1616
3020.734	1619
3024.002	1627
3027.267	1616
3030.53	1648
3033.789	1667
3037.046	1692
3040.301	1725
3043.552	1748
3046.801	1778
3050.048	1845
3053.291	1873
3056.532	1920
3059.771	1968
3063.006	2025
3066.239	2104
3069.469	2167
3072.697	2187
3075.922	2264
3079.144	2327
3082.364	2347
3085.581	2413
3088.795	2465
3092.007	2509
3095.216	2564
3098.423	2622
3101.627	2661
3104.828	2726
3108.026	2819
3111.222	2857
3114.416	2927
3117.607	2967
3120.795	3052
3123.98	3107
3127.163	3187
3130.344	3276
3133.521	3346
3136.696	3421
3139.869	3498
3143.039	3515
3146.206	3593
3149.371	3646
3152.533	3687
3155.693	3704
3158.85	3692
3162.005	3715
3165.157	3730
3168.306	3749
3171.453	3750
3174.597	3746
3177.739	3768
3180.878	3777
3184.014	3771
3187.149	3802
3190.28	3798
3193.409	3803
3196.536	3826
3199.659	3812
3202.781	3818
3205.9	3801
3209.016	3783
3212.13	3792
3215.241	3755
3218.35	3715
3221.456	3676
3224.56	3638
3227.661	3589
3230.76	3575
3233.856	3513
3236.95	3485
3240.041	3452
3243.13	3424
3246.216	3404
3249.3	3353
3252.382	3371
3255.46	3340
3258.537	3318
3261.611	3309
3264.682	3318
3267.751	3341
3270.818	3305
3273.882	3301
3276.943	3304
3280.002	3232
3283.059	3250
3286.113	3204
3289.165	3178
3292.214	3118
3295.261	3060
3298.306	3014
3301.348	2959
3304.387	2927
3307.425	2869
3310.459	2843
3313.492	2797
3316.521	2743
3319.549	2713
3322.574	2724
3325.597	2665
3328.617	2638
3331.635	2638
3334.65	2622
3337.663	2580
3340.674	2596
3343.682	2597
3346.688	2579
3349.691	2565
3352.692	2523
3355.691	2515
3358.687	2483
3361.681	2484
3364.673	2445
3367.662	2399
3370.649	2341
3373.633	2352
3376.615	2303
3379.595	2268
3382.572	2240
3385.547	2192
3388.52	2182
3391.49	2116
3394.458	2094
3397.424	2065
3400.387	2033
3403.348	2018
3406.307	1986
3409.263	1971
3412.217	1951
3415.168	1920
3418.118	1906
3421.065	1864
3424.009	1845
3426.951	1814
3429.891	1775
3432.829	1741
3435.764	1691
3438.697	1667
3441.628	1605
3444.557	1547
3447.483	1532
3450.407	1464
3453.328	1402
3456.247	1376
3459.164	1307
3462.079	1273
3464.991	1225
3467.902	1167
3470.809	1110
3473.715	1072
3476.618	1033
3479.519	1016
3482.418	958
3485.315	937
3488.209	889
3491.101	877
3493.99	836
3496.878	802
3499.763	774
3502.646	728
3505.527	688
3508.405	661
3511.281	634
3514.155	582
3517.027	549
3519.897	515
3522.764	474
3525.629	429
3528.492	397
3531.352	349
3534.211	325
3537.067	301
3539.921	247
3542.773	226
3545.622	189
3548.469	180
3551.315	137
3554.157	116
3556.998	81
3559.837	67
3562.673	39
3565.507	21
3568.339	-2
3571.169	-9
3573.996	-47
3576.822	-68
3579.645	-69
3582.466	-96
3585.285	-110
3588.101	-119
3590.916	-145
3593.728	-158
3596.538	-189
3599.346	-189
3602.152	-211
3604.956	-224
3607.757	-240
3610.556	-240
3613.354	-264
3616.149	-273
3618.942	-284
3621.732	-301
3624.521	-314
3627.307	-319
3630.092	-322
3632.874	-340
3635.654	-340
3638.432	-350
3641.208	-362
3643.982	-366
3646.753	-383
3649.523	-391
3652.29	-399
3655.055	-400
3657.818	-413
3660.579	-430
3663.338	-433
3666.095	-435
3668.849	-450
3671.602	-461
3674.352	-462
3677.101	-471
3679.847	-484
3682.591	-481
3685.333	-488
3688.073	-486
3690.811	-490
3693.547	-494
3696.281	-514
3699.013	-510
3701.742	-515
3704.47	-519
3707.195	-524
3709.919	-529
3712.64	-531
3715.359	-530
3718.076	-534
3720.792	-540
3723.505	-546
3726.216	-546
3728.925	-551
3731.632	-559
3734.336	-562
3737.039	-567
3739.74	-564
3742.439	-573
3745.136	-569
3747.83	-567
3750.523	-566
3753.213	-570
3755.902	-570
3758.589	-572
3761.273	-572
3763.956	-580
3766.636	-577
3769.315	-580
3771.991	-578
3774.665	-583
3777.338	-584
3780.008	-587
3782.677	-593
3785.343	-592
3788.007	-594
3790.67	-593
3793.33	-600
3795.989	-595
3798.645	-599
3801.299	-608
3803.952	-600
3806.602	-599
3809.251	-608
3811.897	-599
3814.542	-590
3817.184	-603
3819.825	-604
3822.463	-597
3825.1	-609
3827.735	-611
3830.367	-610
3832.998	-612
3835.627	-616
3838.253	-616
3840.878	-613
3843.501	-619
3846.122	-609
3848.741	-607
3851.358	-613
3853.973	-608
3856.586	-614
3859.197	-619
3861.806	-616
3864.414	-612
3867.019	-609
3869.622	-616
3872.224	-607
3874.823	-598
3877.421	-585
3880.016	-568
3882.61	-547
3885.202	-550
3887.792	-570
3890.38	-595
3892.966	-606
3895.55	-610
3898.132	-618
3900.713	-623
3903.291	-623
3905.868	-630
3908.442	-622
3911.015	-616
3913.586	-624
3916.155	-626
3918.722	-621
3921.287	-625
3923.85	-629
3926.411	-628
3928.971	-630
3931.528	-629
3934.084	-623
3936.638	-627
3939.19	-630
3941.74	-635
3944.288	-634
3946.834	-630
3949.378	-632
3951.921	-630
3954.462	-634
3957	-625
3959.537	-623
3962.072	-625
3964.606	-626
3967.137	-630
3969.667	-626
3972.194	-623
3974.72	-621
3977.244	-619
3979.766	-621
3982.286	-622
3984.805	-608
3987.321	-610
3989.836	-620
3992.349	-614
3994.86	-613
3997.369	-622
3999.877	-613
4002.382	-612
4004.886	-618
4007.388	-615
4009.888	-615
4012.386	-616
4014.883	-615
4017.377	-613
4019.87	-615
4022.361	-617
4024.85	-622
4027.338	-624
4029.823	-616
4032.307	-622
4034.789	-619
4037.269	-627
4039.747	-624
4042.224	-615
4044.699	-617
4047.172	-624
4049.643	-619
4052.112	-613
4054.58	-613
4057.046	-627
4059.51	-622
4061.972	-621
4064.432	-617
4066.891	-616
4069.348	-624
4071.803	-622
4074.256	-618
4076.708	-622
4079.158	-617
4081.606	-611
4084.052	-613
4086.497	-617
4088.939	-614
4091.38	-611
4093.819	-614
4096.257	-648
4098.693	-654
4101.127	-654
4103.559	-655
4105.989	-392
4108.418	-378
4110.845	-346
4113.27	-322
4115.694	-286
4118.115	-233
4120.535	-621
4122.954	-627
4125.37	-616
4127.785	-615
4130.198	-624
4132.609	-612
4135.019	-655
4137.427	-655
4139.833	-653
4142.237	-650
