Data from 2018-2-7_conc=5_RamanShift_16.txt Node
Date: Tue Feb 13 14:07:43 IST 2018
User: aro
Spectrometer: QEPB0276
Trigger mode: 0
Integration Time (sec): 3.000000E1
Scans to average: 1
Electric dark correction enabled: true
Nonlinearity correction enabled: false
Boxcar width: 0
XAxis mode: Raman Shifts
Number of Pixels in Spectrum: 1044
>>>>>Begin Spectral Data<<<<<
160.701	-172
166.742	27
172.777	609
178.805	2345
184.826	6407
190.841	13250
196.849	20989
202.85	26281
208.845	27925
214.833	27618
220.815	27157
226.789	26952
232.758	26790
238.719	26570
244.674	26155
250.623	25671
256.565	25088
262.5	24580
268.429	24092
274.351	23772
280.267	23388
286.176	23154
292.079	22962
297.975	22705
303.865	22443
309.748	22363
315.625	22187
321.495	22041
327.359	21990
333.217	21875
339.068	21909
344.912	21892
350.751	21822
356.583	21797
362.408	21801
368.227	21829
374.04	21836
379.847	21862
385.647	21957
391.44	22021
397.228	22114
403.009	22263
408.784	22291
414.553	22359
420.315	22345
426.071	22409
431.821	22397
437.565	22426
443.302	22309
449.033	22274
454.758	22281
460.477	22152
466.189	22087
471.896	22106
477.596	22038
483.29	21979
488.978	21921
494.66	21849
500.335	21714
506.005	21503
511.668	21232
517.325	20993
522.977	20792
528.622	20671
534.261	20486
539.894	20471
545.521	20352
551.141	20298
556.756	20181
562.365	20097
567.968	20029
573.565	19956
579.155	19844
584.74	19798
590.319	19710
595.892	19614
601.459	19597
607.02	19460
612.575	19332
618.124	19248
623.667	19158
629.204	19013
634.735	18960
640.261	18854
645.781	18774
651.294	18769
656.802	18800
662.304	18684
667.8	18687
673.29	18674
678.775	18629
684.254	18508
689.726	18506
695.193	18416
700.655	18359
706.11	18300
711.56	18161
717.004	18040
722.442	17970
727.874	17894
733.301	17796
738.722	17804
744.137	17796
749.547	17793
754.951	17724
760.349	17783
765.741	17809
771.128	17798
776.509	17836
781.885	17798
787.254	17709
792.618	17636
797.977	17542
803.33	17469
808.677	17295
814.019	17229
819.355	17177
824.686	17093
830.011	17003
835.33	17077
840.644	17045
845.952	17039
851.255	17109
856.552	17133
861.844	17103
867.13	17062
872.41	16983
877.686	16932
882.955	16763
888.219	16627
893.478	16443
898.731	16265
903.979	16032
909.221	15965
914.458	15862
919.69	15829
924.916	15902
930.136	15967
935.351	15998
940.561	15983
945.766	15990
950.965	15868
956.158	15809
961.347	15613
966.529	15421
971.707	15210
976.879	15003
982.046	14947
987.208	14898
992.364	14909
997.515	14987
1002.66	15067
1007.801	15251
1012.936	15372
1018.066	15365
1023.19	15398
1028.309	15324
1033.423	15387
1038.532	15248
1043.636	15048
1048.734	14902
1053.827	14788
1058.915	14588
1063.998	14477
1069.075	14484
1074.147	14507
1079.214	14554
1084.276	14653
1089.333	14709
1094.385	14809
1099.431	14772
1104.472	14771
1109.509	14690
1114.54	14519
1119.565	14340
1124.586	14168
1129.602	14100
1134.613	13934
1139.618	13879
1144.619	13804
1149.614	13829
1154.604	13903
1159.589	13884
1164.57	13916
1169.545	14016
1174.515	13961
1179.48	13879
1184.44	13815
1189.395	13688
1194.345	13560
1199.29	13564
1204.23	13541
1209.165	13594
1214.095	13624
1219.021	13723
1223.941	13775
1228.856	13820
1233.766	13913
1238.672	13936
1243.572	13878
1248.467	13872
1253.358	13660
1258.244	13438
1263.124	13253
1268	13034
1272.871	12916
1277.737	12791
1282.599	12739
1287.455	12706
1292.306	12744
1297.153	12778
1301.995	12812
1306.832	12886
1311.664	12907
1316.491	12850
1321.314	12722
1326.132	12553
1330.945	12264
1335.753	11976
1340.556	11634
1345.354	11403
1350.148	11213
1354.937	11146
1359.722	11125
1364.501	11198
1369.276	11288
1374.046	11469
1378.811	11637
1383.572	11732
1388.327	11812
1393.079	11750
1397.825	11527
1402.567	11396
1407.304	11293
1412.036	11204
1416.764	11061
1421.487	11025
1426.205	10942
1430.919	10936
1435.628	10895
1440.333	10938
1445.032	10954
1449.727	11005
1454.418	10963
1459.104	10867
1463.785	10620
1468.462	10424
1473.134	10165
1477.802	9965
1482.465	9788
1487.123	9709
1491.777	9678
1496.426	9676
1501.071	9811
1505.711	10029
1510.347	10138
1514.978	10333
1519.604	10467
1524.226	10577
1528.844	10560
1533.457	10543
1538.065	10522
1542.669	10431
1547.269	10377
1551.864	10303
1556.454	10293
1561.041	10308
1565.622	10245
1570.199	10261
1574.772	10353
1579.34	10458
1583.904	10496
1588.464	10546
1593.019	10596
1597.569	10528
1602.115	10457
1606.657	10384
1611.195	10336
1615.728	10267
1620.256	10205
1624.78	10256
1629.3	10237
1633.816	10274
1638.327	10339
1642.834	10374
1647.336	10461
1651.834	10463
1656.328	10397
1660.817	10353
1665.302	10293
1669.783	10082
1674.259	9825
1678.732	9521
1683.199	9193
1687.663	8896
1692.122	8625
1696.577	8425
1701.028	8455
1705.474	8507
1709.917	8549
1714.355	8593
1718.788	8517
1723.218	8377
1727.643	8254
1732.064	8117
1736.481	7928
1740.893	7723
1745.301	7500
1749.705	7278
1754.105	7107
1758.501	6912
1762.893	6692
1767.28	6530
1771.663	6369
1776.042	6293
1780.417	6184
1784.787	6211
1789.154	6284
1793.516	6398
1797.874	6493
1802.228	6624
1806.578	6654
1810.924	6677
1815.266	6640
1819.603	6514
1823.937	6415
1828.266	6305
1832.591	6198
1836.913	6150
1841.23	6089
1845.543	6051
1849.852	6015
1854.156	5995
1858.457	6003
1862.754	5975
1867.047	5966
1871.335	5970
1875.62	5910
1879.9	5897
1884.177	5876
1888.449	5809
1892.718	5758
1896.982	5694
1901.243	5671
1905.499	5605
1909.752	5575
1914	5586
1918.245	5623
1922.485	5625
1926.722	5690
1930.954	5771
1935.183	5803
1939.408	5904
1943.628	5886
1947.845	5940
1952.058	5916
1956.267	5842
1960.472	5814
1964.673	5719
1968.87	5639
1973.063	5538
1977.252	5474
1981.438	5398
1985.619	5341
1989.797	5309
1993.971	5283
1998.14	5244
2002.306	5255
2006.469	5214
2010.627	5208
2014.781	5174
2018.932	5118
2023.078	5088
2027.221	4977
2031.36	4922
2035.495	4850
2039.627	4807
2043.754	4726
2047.878	4657
2051.998	4651
2056.114	4634
2060.226	4616
2064.334	4633
2068.439	4644
2072.54	4664
2076.637	4692
2080.73	4728
2084.82	4760
2088.906	4756
2092.988	4758
2097.066	4732
2101.14	4717
2105.211	4688
2109.278	4654
2113.342	4621
2117.401	4617
2121.457	4562
2125.509	4568
2129.558	4531
2133.602	4472
2137.643	4483
2141.681	4467
2145.714	4455
2149.744	4422
2153.77	4377
2157.793	4350
2161.812	4305
2165.827	4216
2169.838	4143
2173.846	4104
2177.851	4012
2181.851	3934
2185.848	3930
2189.841	3883
2193.831	3830
2197.817	3805
2201.799	3774
2205.778	3740
2209.753	3733
2213.725	3741
2217.693	3723
2221.657	3718
2225.618	3683
2229.575	3667
2233.529	3643
2237.479	3617
2241.425	3551
2245.368	3512
2249.307	3469
2253.243	3428
2257.175	3381
2261.104	3309
2265.029	3304
2268.95	3260
2272.868	3207
2276.783	3190
2280.694	3153
2284.601	3143
2288.505	3088
2292.405	3080
2296.302	3059
2300.195	3005
2304.085	2966
2307.971	2929
2311.854	2909
2315.734	2848
2319.609	2825
2323.482	2744
2327.351	2732
2331.216	2735
2335.078	2701
2338.937	2695
2342.792	2700
2346.643	2652
2350.492	2659
2354.336	2681
2358.178	2657
2362.015	2689
2365.85	2692
2369.681	2678
2373.508	2686
2377.333	2695
2381.153	2700
2384.971	2660
2388.785	2660
2392.595	2612
2396.402	2577
2400.206	2566
2404.007	2553
2407.804	2549
2411.597	2514
2415.388	2491
2419.174	2489
2422.958	2469
2426.738	2471
2430.515	2406
2434.289	2414
2438.059	2381
2441.825	2366
2445.589	2349
2449.349	2328
2453.106	2286
2456.859	2280
2460.61	2206
2464.356	2228
2468.1	2169
2471.84	2168
2475.577	2122
2479.311	2128
2483.041	2112
2486.768	2109
2490.492	2091
2494.213	2088
2497.93	2087
2501.644	2060
2505.355	2052
2509.062	2058
2512.766	2040
2516.467	2024
2520.165	2025
2523.859	1996
2527.551	1976
2531.239	1975
2534.923	1969
2538.605	1946
2542.283	1946
2545.958	1917
2549.63	1923
2553.299	1935
2556.964	1932
2560.626	1909
2564.285	1908
2567.941	1899
2571.594	1893
2575.243	1877
2578.89	1862
2582.533	1842
2586.173	1839
2589.809	1833
2593.443	1829
2597.073	1784
2600.701	1748
2604.325	1737
2607.946	1747
2611.564	1737
2615.178	1741
2618.79	1728
2622.398	1699
2626.004	1685
2629.606	1665
2633.205	1623
2636.801	1612
2640.394	1582
2643.983	1563
2647.57	1530
2651.153	1521
2654.734	1496
2658.311	1482
2661.885	1448
2665.456	1444
2669.025	1426
2672.589	1400
2676.151	1382
2679.71	1375
2683.266	1340
2686.819	1319
2690.368	1293
2693.915	1279
2697.458	1249
2700.999	1226
2704.536	1191
2708.071	1151
2711.602	1144
2715.13	1123
2718.656	1085
2722.178	1060
2725.697	1041
2729.214	1030
2732.727	1024
2736.237	1024
2739.744	1023
2743.249	1018
2746.75	1029
2750.248	1036
2753.743	1053
2757.236	1060
2760.725	1069
2764.211	1090
2767.695	1076
2771.175	1077
2774.652	1081
2778.127	1066
2781.598	1064
2785.067	1053
2788.532	1038
2791.995	1057
2795.455	1053
2798.911	1059
2802.365	1065
2805.816	1069
2809.264	1046
2812.709	1045
2816.151	1060
2819.59	1059
2823.026	1050
2826.46	1049
2829.89	1063
2833.318	1064
2836.742	1053
2840.164	1074
2843.583	1091
2846.999	1098
2850.412	1108
2853.822	1103
2857.229	1122
2860.634	1149
2864.035	1177
2867.434	1203
2870.83	1215
2874.223	1257
2877.613	1273
2881	1281
2884.385	1280
2887.766	1261
2891.145	1284
2894.521	1275
2897.894	1259
2901.264	1265
2904.631	1273
2907.996	1270
2911.358	1277
2914.717	1302
2918.073	1292
2921.426	1326
2924.777	1348
2928.124	1362
2931.469	1382
2934.811	1407
2938.15	1430
2941.487	1446
2944.821	1448
2948.152	1429
2951.48	1445
2954.805	1429
2958.128	1410
2961.447	1409
2964.765	1402
2968.079	1401
2971.39	1423
2974.699	1424
2978.005	1457
2981.308	1486
2984.609	1503
2987.907	1515
2991.202	1560
2994.494	1596
2997.784	1615
3001.07	1669
3004.355	1674
3007.636	1682
3010.915	1705
3014.191	1727
3017.464	1725
3020.734	1759
3024.002	1758
3027.267	1773
3030.53	1807
3033.789	1814
3037.046	1841
3040.301	1854
3043.552	1894
3046.801	1941
3050.048	1981
3053.291	2033
3056.532	2093
3059.771	2146
3063.006	2215
3066.239	2290
3069.469	2360
3072.697	2413
3075.922	2505
3079.144	2538
3082.364	2596
3085.581	2640
3088.795	2715
3092.007	2798
3095.216	2831
3098.423	2885
3101.627	2946
3104.828	3024
3108.026	3066
3111.222	3116
3114.416	3220
3117.607	3293
3120.795	3346
3123.98	3425
3127.163	3550
3130.344	3599
3133.521	3690
3136.696	3773
3139.869	3856
3143.039	3933
3146.206	3976
3149.371	4061
3152.533	4075
3155.693	4081
3158.85	4098
3162.005	4143
3165.157	4185
3168.306	4148
3171.453	4142
3174.597	4174
3177.739	4184
3180.878	4187
3184.014	4222
3187.149	4222
3190.28	4201
3193.409	4216
3196.536	4248
3199.659	4240
3202.781	4243
3205.9	4223
3209.016	4219
3212.13	4193
3215.241	4197
3218.35	4141
3221.456	4105
3224.56	4068
3227.661	3994
3230.76	3982
3233.856	3909
3236.95	3893
3240.041	3876
3243.13	3853
3246.216	3805
3249.3	3806
3252.382	3766
3255.46	3744
3258.537	3740
3261.611	3740
3264.682	3758
3267.751	3740
3270.818	3711
3273.882	3724
3276.943	3698
3280.002	3654
3283.059	3630
3286.113	3577
3289.165	3531
3292.214	3499
3295.261	3438
3298.306	3375
3301.348	3319
3304.387	3269
3307.425	3207
3310.459	3192
3313.492	3131
3316.521	3089
3319.549	3049
3322.574	3024
3325.597	2998
3328.617	2958
3331.635	2956
3334.65	2960
3337.663	2931
3340.674	2885
3343.682	2903
3346.688	2893
3349.691	2878
3352.692	2842
3355.691	2847
3358.687	2808
3361.681	2781
3364.673	2755
3367.662	2693
3370.649	2666
3373.633	2626
3376.615	2591
3379.595	2546
3382.572	2510
3385.547	2478
3388.52	2459
3391.49	2401
3394.458	2369
3397.424	2334
3400.387	2306
3403.348	2266
3406.307	2247
3409.263	2200
3412.217	2188
3415.168	2164
3418.118	2151
3421.065	2126
3424.009	2084
3426.951	2067
3429.891	2036
3432.829	1988
3435.764	1932
3438.697	1876
3441.628	1826
3444.557	1791
3447.483	1741
3450.407	1679
3453.328	1620
3456.247	1550
3459.164	1482
3462.079	1451
3464.991	1379
3467.902	1335
3470.809	1302
3473.715	1238
3476.618	1202
3479.519	1159
3482.418	1117
3485.315	1066
3488.209	1044
3491.101	998
3493.99	972
3496.878	907
3499.763	880
3502.646	856
3505.527	801
3508.405	776
3511.281	739
3514.155	704
3517.027	643
3519.897	605
3522.764	561
3525.629	512
3528.492	485
3531.352	431
3534.211	395
3537.067	364
3539.921	313
3542.773	281
3545.622	240
3548.469	219
3551.315	181
3554.157	151
3556.998	123
3559.837	111
3562.673	67
3565.507	58
3568.339	31
3571.169	2
3573.996	-15
3576.822	-30
3579.645	-56
3582.466	-85
3585.285	-94
3588.101	-112
3590.916	-134
3593.728	-161
3596.538	-181
3599.346	-191
3602.152	-201
3604.956	-224
3607.757	-239
3610.556	-253
3613.354	-271
3616.149	-292
3618.942	-288
3621.732	-314
3624.521	-328
3627.307	-331
3630.092	-346
3632.874	-354
3635.654	-364
3638.432	-373
3641.208	-394
3643.982	-392
3646.753	-403
3649.523	-415
3652.29	-417
3655.055	-435
3657.818	-438
3660.579	-450
3663.338	-456
3666.095	-460
3668.849	-490
3671.602	-482
3674.352	-493
3677.101	-504
3679.847	-515
3682.591	-509
3685.333	-522
3688.073	-522
3690.811	-536
3693.547	-532
3696.281	-546
3699.013	-547
3701.742	-558
3704.47	-561
3707.195	-571
3709.919	-566
3712.64	-577
3715.359	-579
3718.076	-576
3720.792	-579
3723.505	-587
3726.216	-590
3728.925	-591
3731.632	-600
3734.336	-599
3737.039	-606
3739.74	-598
3742.439	-608
3745.136	-608
3747.83	-608
3750.523	-606
3753.213	-619
3755.902	-616
3758.589	-612
3761.273	-616
3763.956	-625
3766.636	-627
3769.315	-630
3771.991	-626
3774.665	-635
3777.338	-635
3780.008	-635
3782.677	-640
3785.343	-643
3788.007	-633
3790.67	-637
3793.33	-643
3795.989	-642
3798.645	-643
3801.299	-650
3803.952	-652
3806.602	-647
3809.251	-650
3811.897	-642
3814.542	-644
3817.184	-654
3819.825	-653
3822.463	-646
3825.1	-654
3827.735	-657
3830.367	-656
3832.998	-659
3835.627	-658
3838.253	-660
3840.878	-661
3843.501	-657
3846.122	-659
3848.741	-660
3851.358	-665
3853.973	-660
3856.586	-659
3859.197	-664
3861.806	-664
3864.414	-660
3867.019	-654
3869.622	-658
3872.224	-657
3874.823	-645
3877.421	-617
3880.016	-603
3882.61	-575
3885.202	-566
3887.792	-596
3890.38	-623
3892.966	-648
3895.55	-661
3898.132	-668
3900.713	-671
3903.291	-679
3905.868	-676
3908.442	-678
3911.015	-673
3913.586	-677
3916.155	-674
3918.722	-675
3921.287	-674
3923.85	-674
3926.411	-672
3928.971	-678
3931.528	-670
3934.084	-668
3936.638	-674
3939.19	-680
3941.74	-683
3944.288	-681
3946.834	-683
3949.378	-680
3951.921	-679
3954.462	-680
3957	-673
3959.537	-673
3962.072	-676
3964.606	-666
3967.137	-681
3969.667	-675
3972.194	-673
3974.72	-670
3977.244	-670
3979.766	-672
3982.286	-668
3984.805	-658
3987.321	-661
3989.836	-662
3992.349	-665
3994.86	-657
3997.369	-668
3999.877	-663
4002.382	-658
4004.886	-660
4007.388	-666
4009.888	-655
4012.386	-660
4014.883	-662
4017.377	-662
4019.87	-660
4022.361	-661
4024.85	-668
4027.338	-668
4029.823	-662
4032.307	-670
4034.789	-672
4037.269	-669
4039.747	-668
4042.224	-663
4044.699	-669
4047.172	-672
4049.643	-664
4052.112	-669
4054.58	-660
4057.046	-669
4059.51	-664
4061.972	-669
4064.432	-671
4066.891	-665
4069.348	-668
4071.803	-671
4074.256	-662
4076.708	-659
4079.158	-669
4081.606	-661
4084.052	-663
4086.497	-668
4088.939	-666
4091.38	-654
4093.819	-664
4096.257	-697
4098.693	-699
4101.127	-701
4103.559	-699
4105.989	-413
4108.418	-400
4110.845	-380
4113.27	-352
4115.694	-303
4118.115	-261
4120.535	-662
4122.954	-672
4125.37	-663
4127.785	-665
4130.198	-674
4132.609	-664
4135.019	-706
4137.427	-702
4139.833	-703
4142.237	-698
