Data from 2018-2-7_conc=5_RamanShift_27.txt Node
Date: Tue Feb 13 14:16:43 IST 2018
User: aro
Spectrometer: QEPB0276
Trigger mode: 0
Integration Time (sec): 3.000000E1
Scans to average: 1
Electric dark correction enabled: true
Nonlinearity correction enabled: false
Boxcar width: 0
XAxis mode: Raman Shifts
Number of Pixels in Spectrum: 1044
>>>>>Begin Spectral Data<<<<<
160.701	-159
166.742	29
172.777	579
178.805	2258
184.826	6149
190.841	12717
196.849	20108
202.85	25299
208.845	26880
214.833	26629
220.815	26105
226.789	25970
232.758	25815
238.719	25653
244.674	25278
250.623	24888
256.565	24348
262.5	23812
268.429	23356
274.351	23010
280.267	22759
286.176	22435
292.079	22245
297.975	22094
303.865	21878
309.748	21743
315.625	21566
321.495	21512
327.359	21443
333.217	21371
339.068	21332
344.912	21372
350.751	21316
356.583	21294
362.408	21273
368.227	21309
374.04	21284
379.847	21389
385.647	21407
391.44	21495
397.228	21564
403.009	21712
408.784	21741
414.553	21816
420.315	21928
426.071	21871
431.821	21889
437.565	21867
443.302	21784
449.033	21701
454.758	21709
460.477	21629
466.189	21594
471.896	21517
477.596	21509
483.29	21407
488.978	21427
494.66	21350
500.335	21228
506.005	20985
511.668	20663
517.325	20399
522.977	20218
528.622	20062
534.261	19913
539.894	19808
545.521	19759
551.141	19680
556.756	19590
562.365	19496
567.968	19445
573.565	19411
579.155	19293
584.74	19213
590.319	19123
595.892	19075
601.459	19019
607.02	18928
612.575	18784
618.124	18624
623.667	18528
629.204	18448
634.735	18399
640.261	18284
645.781	18261
651.294	18242
656.802	18164
662.304	18225
667.8	18119
673.29	18073
678.775	18041
684.254	18005
689.726	17928
695.193	17873
700.655	17779
706.11	17703
711.56	17615
717.004	17522
722.442	17412
727.874	17366
733.301	17342
738.722	17223
744.137	17205
749.547	17185
754.951	17231
760.349	17152
765.741	17204
771.128	17232
776.509	17303
781.885	17209
787.254	17150
792.618	17152
797.977	17012
803.33	16960
808.677	16811
814.019	16740
819.355	16646
824.686	16548
830.011	16495
835.33	16570
840.644	16547
845.952	16601
851.255	16580
856.552	16681
861.844	16580
867.13	16483
872.41	16485
877.686	16332
882.955	16233
888.219	16067
893.478	15919
898.731	15753
903.979	15604
909.221	15477
914.458	15421
919.69	15412
924.916	15417
930.136	15470
935.351	15524
940.561	15506
945.766	15452
950.965	15402
956.158	15330
961.347	15105
966.529	14928
971.707	14690
976.879	14609
982.046	14427
987.208	14393
992.364	14477
997.515	14516
1002.66	14644
1007.801	14806
1012.936	14882
1018.066	14901
1023.19	14882
1028.309	14881
1033.423	14831
1038.532	14750
1043.636	14591
1048.734	14430
1053.827	14317
1058.915	14118
1063.998	14040
1069.075	13981
1074.147	13984
1079.214	14100
1084.276	14112
1089.333	14198
1094.385	14261
1099.431	14350
1104.472	14301
1109.509	14261
1114.54	14023
1119.565	13891
1124.586	13721
1129.602	13563
1134.613	13521
1139.618	13348
1144.619	13348
1149.614	13424
1154.604	13356
1159.589	13431
1164.57	13444
1169.545	13524
1174.515	13509
1179.48	13362
1184.44	13312
1189.395	13214
1194.345	13111
1199.29	13014
1204.23	12985
1209.165	13103
1214.095	13179
1219.021	13180
1223.941	13285
1228.856	13382
1233.766	13425
1238.672	13468
1243.572	13437
1248.467	13310
1253.358	13196
1258.244	12975
1263.124	12764
1268	12588
1272.871	12399
1277.737	12355
1282.599	12283
1287.455	12256
1292.306	12289
1297.153	12332
1301.995	12332
1306.832	12423
1311.664	12421
1316.491	12368
1321.314	12246
1326.132	12051
1330.945	11757
1335.753	11446
1340.556	11247
1345.354	10958
1350.148	10855
1354.937	10739
1359.722	10711
1364.501	10732
1369.276	10835
1374.046	10911
1378.811	11107
1383.572	11174
1388.327	11250
1393.079	11176
1397.825	11076
1402.567	10962
1407.304	10807
1412.036	10704
1416.764	10649
1421.487	10585
1426.205	10521
1430.919	10511
1435.628	10438
1440.333	10530
1445.032	10548
1449.727	10531
1454.418	10525
1459.104	10423
1463.785	10188
1468.462	9960
1473.134	9731
1477.802	9532
1482.465	9363
1487.123	9225
1491.777	9208
1496.426	9233
1501.071	9353
1505.711	9395
1510.347	9603
1514.978	9758
1519.604	9917
1524.226	10000
1528.844	10038
1533.457	9951
1538.065	9957
1542.669	9864
1547.269	9837
1551.864	9779
1556.454	9772
1561.041	9792
1565.622	9784
1570.199	9807
1574.772	9873
1579.34	9895
1583.904	10015
1588.464	10046
1593.019	9986
1597.569	9962
1602.115	9907
1606.657	9866
1611.195	9812
1615.728	9759
1620.256	9714
1624.78	9687
1629.3	9685
1633.816	9687
1638.327	9722
1642.834	9781
1647.336	9897
1651.834	9860
1656.328	9797
1660.817	9743
1665.302	9620
1669.783	9434
1674.259	9229
1678.732	8932
1683.199	8601
1687.663	8292
1692.122	8044
1696.577	7914
1701.028	7899
1705.474	7925
1709.917	7981
1714.355	7952
1718.788	7976
1723.218	7866
1727.643	7696
1732.064	7587
1736.481	7412
1740.893	7206
1745.301	7048
1749.705	6857
1754.105	6646
1758.501	6463
1762.893	6234
1767.28	6078
1771.663	5974
1776.042	5837
1780.417	5803
1784.787	5751
1789.154	5787
1793.516	5928
1797.874	6019
1802.228	6105
1806.578	6175
1810.924	6191
1815.266	6158
1819.603	6070
1823.937	5953
1828.266	5893
1832.591	5830
1836.913	5723
1841.23	5691
1845.543	5637
1849.852	5601
1854.156	5590
1858.457	5577
1862.754	5579
1867.047	5562
1871.335	5542
1875.62	5537
1879.9	5515
1884.177	5502
1888.449	5423
1892.718	5348
1896.982	5269
1901.243	5211
1905.499	5184
1909.752	5136
1914	5134
1918.245	5156
1922.485	5191
1926.722	5220
1930.954	5306
1935.183	5366
1939.408	5391
1943.628	5413
1947.845	5471
1952.058	5448
1956.267	5398
1960.472	5344
1964.673	5251
1968.87	5201
1973.063	5103
1977.252	5050
1981.438	5006
1985.619	4978
1989.797	4915
1993.971	4918
1998.14	4873
2002.306	4845
2006.469	4857
2010.627	4798
2014.781	4791
2018.932	4725
2023.078	4701
2027.221	4626
2031.36	4529
2035.495	4461
2039.627	4430
2043.754	4331
2047.878	4308
2051.998	4283
2056.114	4252
2060.226	4249
2064.334	4234
2068.439	4249
2072.54	4283
2076.637	4294
2080.73	4333
2084.82	4358
2088.906	4355
2092.988	4394
2097.066	4357
2101.14	4298
2105.211	4299
2109.278	4306
2113.342	4277
2117.401	4221
2121.457	4172
2125.509	4212
2129.558	4162
2133.602	4141
2137.643	4116
2141.681	4140
2145.714	4109
2149.744	4057
2153.77	4048
2157.793	4022
2161.812	3974
2165.827	3881
2169.838	3836
2173.846	3797
2177.851	3721
2181.851	3677
2185.848	3644
2189.841	3582
2193.831	3518
2197.817	3541
2201.799	3508
2205.778	3504
2209.753	3491
2213.725	3481
2217.693	3469
2221.657	3460
2225.618	3460
2229.575	3412
2233.529	3377
2237.479	3352
2241.425	3315
2245.368	3267
2249.307	3237
2253.243	3176
2257.175	3161
2261.104	3091
2265.029	3044
2268.95	3049
2272.868	3003
2276.783	2950
2280.694	2909
2284.601	2888
2288.505	2906
2292.405	2885
2296.302	2820
2300.195	2801
2304.085	2742
2307.971	2717
2311.854	2679
2315.734	2667
2319.609	2640
2323.482	2591
2327.351	2568
2331.216	2553
2335.078	2536
2338.937	2529
2342.792	2514
2346.643	2528
2350.492	2488
2354.336	2524
2358.178	2505
2362.015	2538
2365.85	2555
2369.681	2576
2373.508	2553
2377.333	2543
2381.153	2530
2384.971	2545
2388.785	2501
2392.595	2498
2396.402	2475
2400.206	2438
2404.007	2407
2407.804	2401
2411.597	2370
2415.388	2373
2419.174	2354
2422.958	2348
2426.738	2340
2430.515	2304
2434.289	2296
2438.059	2268
2441.825	2273
2445.589	2240
2449.349	2219
2453.106	2184
2456.859	2155
2460.61	2110
2464.356	2087
2468.1	2075
2471.84	2062
2475.577	2025
2479.311	2023
2483.041	1993
2486.768	1972
2490.492	1981
2494.213	1963
2497.93	1958
2501.644	1932
2505.355	1943
2509.062	1932
2512.766	1923
2516.467	1903
2520.165	1892
2523.859	1858
2527.551	1870
2531.239	1839
2534.923	1837
2538.605	1812
2542.283	1826
2545.958	1820
2549.63	1803
2553.299	1809
2556.964	1801
2560.626	1806
2564.285	1814
2567.941	1793
2571.594	1785
2575.243	1768
2578.89	1751
2582.533	1724
2586.173	1730
2589.809	1690
2593.443	1680
2597.073	1669
2600.701	1645
2604.325	1651
2607.946	1649
2611.564	1597
2615.178	1619
2618.79	1610
2622.398	1577
2626.004	1586
2629.606	1561
2633.205	1555
2636.801	1511
2640.394	1511
2643.983	1480
2647.57	1447
2651.153	1442
2654.734	1403
2658.311	1409
2661.885	1380
2665.456	1350
2669.025	1343
2672.589	1324
2676.151	1296
2679.71	1307
2683.266	1271
2686.819	1250
2690.368	1199
2693.915	1189
2697.458	1162
2700.999	1149
2704.536	1101
2708.071	1088
2711.602	1052
2715.13	1024
2718.656	1006
2722.178	975
2725.697	984
2729.214	955
2732.727	952
2736.237	956
2739.744	952
2743.249	942
2746.75	958
2750.248	948
2753.743	963
2757.236	984
2760.725	973
2764.211	968
2767.695	997
2771.175	993
2774.652	981
2778.127	973
2781.598	965
2785.067	955
2788.532	954
2791.995	958
2795.455	941
2798.911	968
2802.365	955
2805.816	969
2809.264	969
2812.709	968
2816.151	976
2819.59	959
2823.026	985
2826.46	967
2829.89	989
2833.318	975
2836.742	977
2840.164	991
2843.583	993
2846.999	997
2850.412	1017
2853.822	1045
2857.229	1038
2860.634	1044
2864.035	1079
2867.434	1104
2870.83	1126
2874.223	1143
2877.613	1162
2881	1174
2884.385	1185
2887.766	1177
2891.145	1190
2894.521	1177
2897.894	1172
2901.264	1183
2904.631	1165
2907.996	1177
2911.358	1199
2914.717	1185
2918.073	1205
2921.426	1220
2924.777	1242
2928.124	1252
2931.469	1267
2934.811	1302
2938.15	1322
2941.487	1322
2944.821	1338
2948.152	1328
2951.48	1311
2954.805	1308
2958.128	1278
2961.447	1277
2964.765	1278
2968.079	1266
2971.39	1274
2974.699	1315
2978.005	1316
2981.308	1332
2984.609	1366
2987.907	1390
2991.202	1392
2994.494	1443
2997.784	1481
3001.07	1507
3004.355	1518
3007.636	1520
3010.915	1550
3014.191	1574
3017.464	1582
3020.734	1591
3024.002	1606
3027.267	1637
3030.53	1631
3033.789	1639
3037.046	1677
3040.301	1706
3043.552	1718
3046.801	1771
3050.048	1827
3053.291	1883
3056.532	1915
3059.771	1973
3063.006	2031
3066.239	2096
3069.469	2146
3072.697	2209
3075.922	2261
3079.144	2326
3082.364	2350
3085.581	2393
3088.795	2471
3092.007	2522
3095.216	2582
3098.423	2626
3101.627	2691
3104.828	2751
3108.026	2816
3111.222	2890
3114.416	2938
3117.607	2997
3120.795	3069
3123.98	3158
3127.163	3227
3130.344	3316
3133.521	3386
3136.696	3467
3139.869	3558
3143.039	3565
3146.206	3621
3149.371	3690
3152.533	3742
3155.693	3750
3158.85	3750
3162.005	3784
3165.157	3792
3168.306	3822
3171.453	3829
3174.597	3813
3177.739	3820
3180.878	3801
3184.014	3826
3187.149	3858
3190.28	3836
3193.409	3841
3196.536	3846
3199.659	3860
3202.781	3873
3205.9	3875
3209.016	3857
3212.13	3848
3215.241	3805
3218.35	3765
3221.456	3715
3224.56	3710
3227.661	3651
3230.76	3612
3233.856	3591
3236.95	3522
3240.041	3526
3243.13	3477
3246.216	3424
3249.3	3426
3252.382	3424
3255.46	3375
3258.537	3405
3261.611	3381
3264.682	3379
3267.751	3375
3270.818	3381
3273.882	3361
3276.943	3358
3280.002	3336
3283.059	3300
3286.113	3260
3289.165	3208
3292.214	3186
3295.261	3124
3298.306	3066
3301.348	3033
3304.387	2971
3307.425	2924
3310.459	2919
3313.492	2839
3316.521	2803
3319.549	2782
3322.574	2755
3325.597	2740
3328.617	2727
3331.635	2710
3334.65	2688
3337.663	2670
3340.674	2647
3343.682	2639
3346.688	2627
3349.691	2608
3352.692	2606
3355.691	2604
3358.687	2567
3361.681	2500
3364.673	2505
3367.662	2470
3370.649	2441
3373.633	2389
3376.615	2378
3379.595	2322
3382.572	2306
3385.547	2270
3388.52	2220
3391.49	2177
3394.458	2151
3397.424	2120
3400.387	2119
3403.348	2071
3406.307	2023
3409.263	2013
3412.217	2008
3415.168	1987
3418.118	1943
3421.065	1941
3424.009	1878
3426.951	1870
3429.891	1805
3432.829	1777
3435.764	1734
3438.697	1702
3441.628	1637
3444.557	1627
3447.483	1543
3450.407	1499
3453.328	1447
3456.247	1394
3459.164	1350
3462.079	1287
3464.991	1248
3467.902	1194
3470.809	1159
3473.715	1112
3476.618	1063
3479.519	1041
3482.418	996
3485.315	973
3488.209	909
3491.101	890
3493.99	846
3496.878	810
3499.763	783
3502.646	735
3505.527	700
3508.405	685
3511.281	628
3514.155	606
3517.027	557
3519.897	521
3522.764	481
3525.629	442
3528.492	391
3531.352	350
3534.211	321
3537.067	288
3539.921	256
3542.773	237
3545.622	182
3548.469	164
3551.315	134
3554.157	114
3556.998	93
3559.837	56
3562.673	41
3565.507	15
3568.339	7
3571.169	-26
3573.996	-43
3576.822	-52
3579.645	-69
3582.466	-99
3585.285	-121
3588.101	-135
3590.916	-153
3593.728	-170
3596.538	-194
3599.346	-205
3602.152	-219
3604.956	-235
3607.757	-257
3610.556	-274
3613.354	-281
3616.149	-293
3618.942	-305
3621.732	-324
3624.521	-327
3627.307	-342
3630.092	-347
3632.874	-361
3635.654	-364
3638.432	-370
3641.208	-378
3643.982	-388
3646.753	-397
3649.523	-408
3652.29	-415
3655.055	-414
3657.818	-434
3660.579	-440
3663.338	-453
3666.095	-462
3668.849	-477
3671.602	-481
3674.352	-482
3677.101	-490
3679.847	-504
3682.591	-504
3685.333	-511
3688.073	-511
3690.811	-516
3693.547	-520
3696.281	-525
3699.013	-531
3701.742	-543
3704.47	-541
3707.195	-549
3709.919	-551
3712.64	-556
3715.359	-552
3718.076	-554
3720.792	-565
3723.505	-568
3726.216	-571
3728.925	-578
3731.632	-589
3734.336	-591
3737.039	-586
3739.74	-586
3742.439	-590
3745.136	-597
3747.83	-598
3750.523	-592
3753.213	-603
3755.902	-600
3758.589	-596
3761.273	-599
3763.956	-605
3766.636	-605
3769.315	-606
3771.991	-605
3774.665	-609
3777.338	-608
3780.008	-612
3782.677	-614
3785.343	-612
3788.007	-612
3790.67	-621
3793.33	-627
3795.989	-622
3798.645	-626
3801.299	-627
3803.952	-627
3806.602	-624
3809.251	-638
3811.897	-625
3814.542	-622
3817.184	-630
3819.825	-625
3822.463	-627
3825.1	-631
3827.735	-634
3830.367	-636
3832.998	-630
3835.627	-634
3838.253	-640
3840.878	-636
3843.501	-634
3846.122	-636
3848.741	-636
3851.358	-641
3853.973	-639
3856.586	-640
3859.197	-640
3861.806	-647
3864.414	-636
3867.019	-640
3869.622	-646
3872.224	-640
3874.823	-623
3877.421	-602
3880.016	-595
3882.61	-554
3885.202	-554
3887.792	-582
3890.38	-603
3892.966	-625
3895.55	-632
3898.132	-642
3900.713	-651
3903.291	-651
3905.868	-644
3908.442	-650
3911.015	-644
3913.586	-658
3916.155	-651
3918.722	-649
3921.287	-653
3923.85	-658
3926.411	-656
3928.971	-655
3931.528	-652
3934.084	-654
3936.638	-655
3939.19	-656
3941.74	-658
3944.288	-659
3946.834	-656
3949.378	-652
3951.921	-648
3954.462	-654
3957	-651
3959.537	-645
3962.072	-646
3964.606	-645
3967.137	-653
3969.667	-648
3972.194	-648
3974.72	-648
3977.244	-647
3979.766	-646
3982.286	-647
3984.805	-639
3987.321	-641
3989.836	-640
3992.349	-641
3994.86	-638
3997.369	-654
3999.877	-640
4002.382	-637
4004.886	-647
4007.388	-641
4009.888	-643
4012.386	-643
4014.883	-638
4017.377	-640
4019.87	-640
4022.361	-641
4024.85	-644
4027.338	-645
4029.823	-636
4032.307	-646
4034.789	-643
4037.269	-647
4039.747	-645
4042.224	-638
4044.699	-638
4047.172	-642
4049.643	-643
4052.112	-643
4054.58	-640
4057.046	-646
4059.51	-643
4061.972	-648
4064.432	-645
4066.891	-640
4069.348	-647
4071.803	-648
4074.256	-644
4076.708	-644
4079.158	-642
4081.606	-641
4084.052	-645
4086.497	-645
4088.939	-640
4091.38	-637
4093.819	-639
4096.257	-674
4098.693	-680
4101.127	-674
4103.559	-678
4105.989	-412
4108.418	-397
4110.845	-369
4113.27	-334
4115.694	-297
4118.115	-245
4120.535	-635
4122.954	-645
4125.37	-639
4127.785	-637
4130.198	-649
4132.609	-641
4135.019	-681
4137.427	-677
4139.833	-673
4142.237	-676
