Data from 2018-2-7_conc=2_RamanShift_17.txt Node
Date: Tue Feb 13 11:56:14 IST 2018
User: aro
Spectrometer: QEPB0276
Trigger mode: 0
Integration Time (sec): 3.000000E1
Scans to average: 1
Electric dark correction enabled: true
Nonlinearity correction enabled: false
Boxcar width: 0
XAxis mode: Raman Shifts
Number of Pixels in Spectrum: 1044
>>>>>Begin Spectral Data<<<<<
160.701	-143
166.742	26
172.777	543
178.805	2050
184.826	5606
190.841	11491
196.849	18180
202.85	22819
208.845	24275
214.833	24040
220.815	23617
226.789	23404
232.758	23345
238.719	23115
244.674	22763
250.623	22417
256.565	21918
262.5	21470
268.429	21098
274.351	20790
280.267	20498
286.176	20263
292.079	20097
297.975	19924
303.865	19751
309.748	19576
315.625	19386
321.495	19325
327.359	19280
333.217	19225
339.068	19182
344.912	19180
350.751	19165
356.583	19149
362.408	19121
368.227	19110
374.04	19136
379.847	19164
385.647	19273
391.44	19304
397.228	19408
403.009	19487
408.784	19573
414.553	19601
420.315	19620
426.071	19662
431.821	19638
437.565	19637
443.302	19583
449.033	19596
454.758	19505
460.477	19504
466.189	19486
471.896	19393
477.596	19343
483.29	19320
488.978	19285
494.66	19181
500.335	19072
506.005	18908
511.668	18670
517.325	18474
522.977	18269
528.622	18169
534.261	18040
539.894	17916
545.521	17902
551.141	17880
556.756	17763
562.365	17695
567.968	17660
573.565	17556
579.155	17458
584.74	17412
590.319	17322
595.892	17347
601.459	17275
607.02	17159
612.575	17021
618.124	16978
623.667	16923
629.204	16750
634.735	16659
640.261	16632
645.781	16614
651.294	16557
656.802	16542
662.304	16506
667.8	16475
673.29	16424
678.775	16447
684.254	16376
689.726	16285
695.193	16221
700.655	16100
706.11	16084
711.56	16022
717.004	15896
722.442	15898
727.874	15767
733.301	15767
738.722	15715
744.137	15666
749.547	15649
754.951	15691
760.349	15689
765.741	15732
771.128	15660
776.509	15690
781.885	15697
787.254	15643
792.618	15596
797.977	15480
803.33	15376
808.677	15276
814.019	15246
819.355	15165
824.686	15103
830.011	15085
835.33	15037
840.644	15128
845.952	15129
851.255	15125
856.552	15176
861.844	15139
867.13	15118
872.41	14997
877.686	14978
882.955	14817
888.219	14687
893.478	14523
898.731	14328
903.979	14168
909.221	14140
914.458	14073
919.69	14038
924.916	14099
930.136	14164
935.351	14180
940.561	14130
945.766	14171
950.965	14067
956.158	13961
961.347	13841
966.529	13612
971.707	13473
976.879	13337
982.046	13168
987.208	13209
992.364	13192
997.515	13245
1002.66	13336
1007.801	13517
1012.936	13610
1018.066	13642
1023.19	13638
1028.309	13580
1033.423	13544
1038.532	13495
1043.636	13394
1048.734	13215
1053.827	13048
1058.915	12915
1063.998	12819
1069.075	12815
1074.147	12797
1079.214	12860
1084.276	12976
1089.333	12976
1094.385	13090
1099.431	13122
1104.472	13039
1109.509	12997
1114.54	12931
1119.565	12728
1124.586	12560
1129.602	12451
1134.613	12336
1139.618	12245
1144.619	12288
1149.614	12248
1154.604	12289
1159.589	12304
1164.57	12351
1169.545	12354
1174.515	12374
1179.48	12300
1184.44	12187
1189.395	12088
1194.345	11990
1199.29	11997
1204.23	11961
1209.165	11997
1214.095	12074
1219.021	12164
1223.941	12219
1228.856	12245
1233.766	12249
1238.672	12270
1243.572	12252
1248.467	12200
1253.358	12074
1258.244	11912
1263.124	11710
1268	11529
1272.871	11391
1277.737	11289
1282.599	11297
1287.455	11263
1292.306	11273
1297.153	11310
1301.995	11388
1306.832	11388
1311.664	11446
1316.491	11312
1321.314	11252
1326.132	11113
1330.945	10853
1335.753	10523
1340.556	10377
1345.354	10106
1350.148	9962
1354.937	9862
1359.722	9871
1364.501	9894
1369.276	9948
1374.046	10105
1378.811	10267
1383.572	10341
1388.327	10411
1393.079	10324
1397.825	10198
1402.567	10094
1407.304	9963
1412.036	9902
1416.764	9822
1421.487	9771
1426.205	9697
1430.919	9671
1435.628	9685
1440.333	9712
1445.032	9725
1449.727	9715
1454.418	9727
1459.104	9614
1463.785	9414
1468.462	9206
1473.134	8989
1477.802	8827
1482.465	8628
1487.123	8517
1491.777	8496
1496.426	8557
1501.071	8644
1505.711	8749
1510.347	8902
1514.978	9000
1519.604	9141
1524.226	9278
1528.844	9283
1533.457	9247
1538.065	9235
1542.669	9184
1547.269	9127
1551.864	9089
1556.454	9068
1561.041	9039
1565.622	9024
1570.199	9095
1574.772	9105
1579.34	9197
1583.904	9233
1588.464	9234
1593.019	9277
1597.569	9239
1602.115	9139
1606.657	9086
1611.195	9034
1615.728	8986
1620.256	8962
1624.78	8928
1629.3	8946
1633.816	8965
1638.327	8969
1642.834	9047
1647.336	9125
1651.834	9077
1656.328	9089
1660.817	9023
1665.302	8913
1669.783	8802
1674.259	8549
1678.732	8257
1683.199	8008
1687.663	7753
1692.122	7448
1696.577	7327
1701.028	7292
1705.474	7375
1709.917	7392
1714.355	7435
1718.788	7420
1723.218	7315
1727.643	7218
1732.064	7055
1736.481	6933
1740.893	6731
1745.301	6581
1749.705	6403
1754.105	6231
1758.501	6022
1762.893	5870
1767.28	5704
1771.663	5597
1776.042	5509
1780.417	5392
1784.787	5417
1789.154	5462
1793.516	5535
1797.874	5647
1802.228	5736
1806.578	5795
1810.924	5793
1815.266	5796
1819.603	5705
1823.937	5599
1828.266	5520
1832.591	5431
1836.913	5395
1841.23	5314
1845.543	5269
1849.852	5272
1854.156	5238
1858.457	5220
1862.754	5203
1867.047	5241
1871.335	5215
1875.62	5204
1879.9	5155
1884.177	5140
1888.449	5101
1892.718	5049
1896.982	4954
1901.243	4928
1905.499	4874
1909.752	4866
1914	4834
1918.245	4855
1922.485	4868
1926.722	4930
1930.954	4969
1935.183	5060
1939.408	5073
1943.628	5117
1947.845	5127
1952.058	5114
1956.267	5076
1960.472	5040
1964.673	4982
1968.87	4914
1973.063	4816
1977.252	4727
1981.438	4685
1985.619	4669
1989.797	4627
1993.971	4590
1998.14	4585
2002.306	4552
2006.469	4564
2010.627	4522
2014.781	4480
2018.932	4451
2023.078	4402
2027.221	4354
2031.36	4285
2035.495	4204
2039.627	4170
2043.754	4088
2047.878	4026
2051.998	4039
2056.114	4012
2060.226	3996
2064.334	3988
2068.439	3994
2072.54	4012
2076.637	4065
2080.73	4075
2084.82	4100
2088.906	4093
2092.988	4084
2097.066	4098
2101.14	4084
2105.211	4049
2109.278	4043
2113.342	4004
2117.401	3994
2121.457	3931
2125.509	3924
2129.558	3941
2133.602	3918
2137.643	3911
2141.681	3898
2145.714	3874
2149.744	3835
2153.77	3814
2157.793	3731
2161.812	3740
2165.827	3670
2169.838	3631
2173.846	3549
2177.851	3504
2181.851	3449
2185.848	3425
2189.841	3375
2193.831	3342
2197.817	3313
2201.799	3306
2205.778	3306
2209.753	3285
2213.725	3240
2217.693	3259
2221.657	3234
2225.618	3248
2229.575	3188
2233.529	3180
2237.479	3158
2241.425	3131
2245.368	3076
2249.307	3019
2253.243	2989
2257.175	2967
2261.104	2905
2265.029	2857
2268.95	2839
2272.868	2809
2276.783	2786
2280.694	2755
2284.601	2752
2288.505	2738
2292.405	2708
2296.302	2657
2300.195	2654
2304.085	2614
2307.971	2577
2311.854	2539
2315.734	2504
2319.609	2478
2323.482	2428
2327.351	2423
2331.216	2417
2335.078	2381
2338.937	2421
2342.792	2367
2346.643	2393
2350.492	2376
2354.336	2369
2358.178	2378
2362.015	2393
2365.85	2390
2369.681	2408
2373.508	2403
2377.333	2405
2381.153	2399
2384.971	2390
2388.785	2367
2392.595	2353
2396.402	2303
2400.206	2307
2404.007	2294
2407.804	2262
2411.597	2248
2415.388	2225
2419.174	2202
2422.958	2225
2426.738	2211
2430.515	2173
2434.289	2165
2438.059	2161
2441.825	2131
2445.589	2126
2449.349	2102
2453.106	2045
2456.859	2036
2460.61	2005
2464.356	1993
2468.1	1960
2471.84	1936
2475.577	1921
2479.311	1909
2483.041	1913
2486.768	1871
2490.492	1865
2494.213	1857
2497.93	1854
2501.644	1840
2505.355	1870
2509.062	1836
2512.766	1817
2516.467	1797
2520.165	1805
2523.859	1800
2527.551	1769
2531.239	1755
2534.923	1720
2538.605	1715
2542.283	1696
2545.958	1731
2549.63	1707
2553.299	1708
2556.964	1690
2560.626	1693
2564.285	1710
2567.941	1678
2571.594	1674
2575.243	1670
2578.89	1662
2582.533	1648
2586.173	1623
2589.809	1632
2593.443	1607
2597.073	1591
2600.701	1601
2604.325	1577
2607.946	1549
2611.564	1537
2615.178	1549
2618.79	1533
2622.398	1511
2626.004	1506
2629.606	1476
2633.205	1446
2636.801	1439
2640.394	1413
2643.983	1401
2647.57	1372
2651.153	1344
2654.734	1349
2658.311	1320
2661.885	1308
2665.456	1277
2669.025	1266
2672.589	1256
2676.151	1241
2679.71	1220
2683.266	1193
2686.819	1186
2690.368	1180
2693.915	1145
2697.458	1112
2700.999	1087
2704.536	1071
2708.071	1032
2711.602	1016
2715.13	983
2718.656	978
2722.178	948
2725.697	926
2729.214	929
2732.727	901
2736.237	911
2739.744	886
2743.249	894
2746.75	899
2750.248	883
2753.743	900
2757.236	924
2760.725	924
2764.211	950
2767.695	929
2771.175	945
2774.652	954
2778.127	935
2781.598	919
2785.067	936
2788.532	918
2791.995	923
2795.455	921
2798.911	920
2802.365	911
2805.816	929
2809.264	916
2812.709	922
2816.151	916
2819.59	934
2823.026	903
2826.46	913
2829.89	925
2833.318	907
2836.742	934
2840.164	940
2843.583	941
2846.999	966
2850.412	958
2853.822	969
2857.229	989
2860.634	996
2864.035	1019
2867.434	1035
2870.83	1052
2874.223	1073
2877.613	1092
2881	1114
2884.385	1116
2887.766	1100
2891.145	1096
2894.521	1097
2897.894	1077
2901.264	1095
2904.631	1098
2907.996	1093
2911.358	1108
2914.717	1111
2918.073	1108
2921.426	1141
2924.777	1141
2928.124	1177
2931.469	1167
2934.811	1220
2938.15	1219
2941.487	1213
2944.821	1232
2948.152	1226
2951.48	1228
2954.805	1207
2958.128	1186
2961.447	1187
2964.765	1191
2968.079	1187
2971.39	1188
2974.699	1201
2978.005	1222
2981.308	1229
2984.609	1253
2987.907	1280
2991.202	1293
2994.494	1342
2997.784	1356
3001.07	1384
3004.355	1395
3007.636	1416
3010.915	1422
3014.191	1467
3017.464	1469
3020.734	1454
3024.002	1476
3027.267	1497
3030.53	1507
3033.789	1525
3037.046	1539
3040.301	1563
3043.552	1607
3046.801	1640
3050.048	1666
3053.291	1702
3056.532	1755
3059.771	1778
3063.006	1869
3066.239	1936
3069.469	1983
3072.697	2023
3075.922	2063
3079.144	2110
3082.364	2173
3085.581	2206
3088.795	2268
3092.007	2298
3095.216	2358
3098.423	2399
3101.627	2457
3104.828	2490
3108.026	2546
3111.222	2631
3114.416	2682
3117.607	2752
3120.795	2814
3123.98	2860
3127.163	2933
3130.344	2984
3133.521	3086
3136.696	3141
3139.869	3208
3143.039	3264
3146.206	3294
3149.371	3362
3152.533	3372
3155.693	3420
3158.85	3416
3162.005	3435
3165.157	3438
3168.306	3457
3171.453	3465
3174.597	3464
3177.739	3491
3180.878	3474
3184.014	3488
3187.149	3476
3190.28	3494
3193.409	3475
3196.536	3503
3199.659	3494
3202.781	3527
3205.9	3498
3209.016	3505
3212.13	3461
3215.241	3469
3218.35	3430
3221.456	3375
3224.56	3337
3227.661	3305
3230.76	3286
3233.856	3242
3236.95	3200
3240.041	3188
3243.13	3121
3246.216	3121
3249.3	3099
3252.382	3094
3255.46	3092
3258.537	3095
3261.611	3052
3264.682	3073
3267.751	3053
3270.818	3056
3273.882	3047
3276.943	3026
3280.002	3038
3283.059	2992
3286.113	2941
3289.165	2920
3292.214	2859
3295.261	2829
3298.306	2787
3301.348	2746
3304.387	2690
3307.425	2665
3310.459	2613
3313.492	2574
3316.521	2532
3319.549	2525
3322.574	2501
3325.597	2487
3328.617	2455
3331.635	2416
3334.65	2421
3337.663	2382
3340.674	2392
3343.682	2395
3346.688	2384
3349.691	2372
3352.692	2361
3355.691	2350
3358.687	2286
3361.681	2274
3364.673	2268
3367.662	2224
3370.649	2168
3373.633	2154
3376.615	2124
3379.595	2095
3382.572	2061
3385.547	2030
3388.52	2000
3391.49	1955
3394.458	1940
3397.424	1887
3400.387	1874
3403.348	1862
3406.307	1848
3409.263	1821
3412.217	1790
3415.168	1778
3418.118	1732
3421.065	1736
3424.009	1695
3426.951	1676
3429.891	1641
3432.829	1602
3435.764	1557
3438.697	1521
3441.628	1484
3444.557	1440
3447.483	1384
3450.407	1356
3453.328	1299
3456.247	1267
3459.164	1195
3462.079	1159
3464.991	1118
3467.902	1074
3470.809	1040
3473.715	975
3476.618	952
3479.519	913
3482.418	892
3485.315	848
3488.209	832
3491.101	782
3493.99	765
3496.878	723
3499.763	686
3502.646	665
3505.527	644
3508.405	604
3511.281	569
3514.155	530
3517.027	496
3519.897	474
3522.764	425
3525.629	398
3528.492	348
3531.352	324
3534.211	300
3537.067	268
3539.921	224
3542.773	185
3545.622	168
3548.469	148
3551.315	109
3554.157	86
3556.998	78
3559.837	48
3562.673	24
3565.507	14
3568.339	-14
3571.169	-25
3573.996	-51
3576.822	-72
3579.645	-72
3582.466	-99
3585.285	-114
3588.101	-117
3590.916	-144
3593.728	-169
3596.538	-183
3599.346	-191
3602.152	-211
3604.956	-224
3607.757	-241
3610.556	-241
3613.354	-261
3616.149	-261
3618.942	-278
3621.732	-283
3624.521	-292
3627.307	-312
3630.092	-315
3632.874	-325
3635.654	-339
3638.432	-338
3641.208	-349
3643.982	-350
3646.753	-365
3649.523	-379
3652.29	-379
3655.055	-388
3657.818	-402
3660.579	-406
3663.338	-410
3666.095	-418
3668.849	-431
3671.602	-439
3674.352	-438
3677.101	-452
3679.847	-459
3682.591	-460
3685.333	-468
3688.073	-464
3690.811	-481
3693.547	-484
3696.281	-487
3699.013	-490
3701.742	-496
3704.47	-495
3707.195	-507
3709.919	-505
3712.64	-503
3715.359	-508
3718.076	-509
3720.792	-518
3723.505	-520
3726.216	-521
3728.925	-520
3731.632	-534
3734.336	-531
3737.039	-538
3739.74	-535
3742.439	-540
3745.136	-543
3747.83	-548
3750.523	-544
3753.213	-544
3755.902	-550
3758.589	-544
3761.273	-546
3763.956	-554
3766.636	-549
3769.315	-553
3771.991	-558
3774.665	-558
3777.338	-551
3780.008	-560
3782.677	-558
3785.343	-562
3788.007	-562
3790.67	-567
3793.33	-572
3795.989	-571
3798.645	-569
3801.299	-572
3803.952	-574
3806.602	-573
3809.251	-577
3811.897	-573
3814.542	-570
3817.184	-576
3819.825	-575
3822.463	-574
3825.1	-580
3827.735	-587
3830.367	-574
3832.998	-580
3835.627	-584
3838.253	-584
3840.878	-580
3843.501	-580
3846.122	-585
3848.741	-581
3851.358	-592
3853.973	-585
3856.586	-589
3859.197	-584
3861.806	-590
3864.414	-584
3867.019	-574
3869.622	-586
3872.224	-576
3874.823	-575
3877.421	-553
3880.016	-538
3882.61	-513
3885.202	-514
3887.792	-537
3890.38	-560
3892.966	-572
3895.55	-581
3898.132	-589
3900.713	-599
3903.291	-594
3905.868	-598
3908.442	-594
3911.015	-591
3913.586	-597
3916.155	-594
3918.722	-596
3921.287	-595
3923.85	-593
3926.411	-597
3928.971	-592
3931.528	-602
3934.084	-592
3936.638	-597
3939.19	-603
3941.74	-604
3944.288	-602
3946.834	-597
3949.378	-598
3951.921	-604
3954.462	-599
3957	-595
3959.537	-591
3962.072	-600
3964.606	-592
3967.137	-601
3969.667	-598
3972.194	-591
3974.72	-593
3977.244	-591
3979.766	-587
3982.286	-586
3984.805	-580
3987.321	-587
3989.836	-588
3992.349	-584
3994.86	-582
3997.369	-598
3999.877	-586
4002.382	-583
4004.886	-589
4007.388	-586
4009.888	-585
4012.386	-590
4014.883	-585
4017.377	-584
4019.87	-586
4022.361	-587
4024.85	-587
4027.338	-589
4029.823	-592
4032.307	-591
4034.789	-591
4037.269	-600
4039.747	-593
4042.224	-585
4044.699	-593
4047.172	-590
4049.643	-590
4052.112	-590
4054.58	-584
4057.046	-594
4059.51	-587
4061.972	-591
4064.432	-584
4066.891	-588
4069.348	-592
4071.803	-591
4074.256	-588
4076.708	-585
4079.158	-589
4081.606	-589
4084.052	-585
4086.497	-590
4088.939	-582
4091.38	-584
4093.819	-587
4096.257	-623
4098.693	-617
4101.127	-619
4103.559	-622
4105.989	-364
4108.418	-354
4110.845	-328
4113.27	-310
4115.694	-277
4118.115	-221
4120.535	-591
4122.954	-594
4125.37	-595
4127.785	-590
4130.198	-591
4132.609	-580
4135.019	-624
4137.427	-618
4139.833	-617
4142.237	-617
