Data from 2018-2-7_conc=2_RamanShift_04.txt Node
Date: Tue Feb 13 11:44:44 IST 2018
User: aro
Spectrometer: QEPB0276
Trigger mode: 0
Integration Time (sec): 3.000000E1
Scans to average: 1
Electric dark correction enabled: true
Nonlinearity correction enabled: false
Boxcar width: 0
XAxis mode: Raman Shifts
Number of Pixels in Spectrum: 1044
>>>>>Begin Spectral Data<<<<<
160.701	-163
166.742	26
172.777	599
178.805	2215
184.826	6061
190.841	12536
196.849	19833
202.85	24880
208.845	26402
214.833	26102
220.815	25566
226.789	25369
232.758	25237
238.719	25072
244.674	24702
250.623	24172
256.565	23719
262.5	23268
268.429	22781
274.351	22460
280.267	22090
286.176	21805
292.079	21684
297.975	21398
303.865	21175
309.748	21034
315.625	20874
321.495	20755
327.359	20653
333.217	20613
339.068	20639
344.912	20540
350.751	20530
356.583	20509
362.408	20503
368.227	20535
374.04	20537
379.847	20573
385.647	20686
391.44	20745
397.228	20805
403.009	20876
408.784	20985
414.553	21028
420.315	21096
426.071	21090
431.821	21067
437.565	21028
443.302	21041
449.033	21003
454.758	20964
460.477	20879
466.189	20881
471.896	20829
477.596	20810
483.29	20719
488.978	20690
494.66	20536
500.335	20451
506.005	20262
511.668	19992
517.325	19798
522.977	19591
528.622	19477
534.261	19318
539.894	19268
545.521	19210
551.141	19106
556.756	19055
562.365	19018
567.968	18881
573.565	18883
579.155	18719
584.74	18691
590.319	18630
595.892	18547
601.459	18448
607.02	18393
612.575	18310
618.124	18226
623.667	18065
629.204	18034
634.735	17940
640.261	17869
645.781	17733
651.294	17769
656.802	17732
662.304	17687
667.8	17634
673.29	17664
678.775	17599
684.254	17522
689.726	17536
695.193	17474
700.655	17358
706.11	17263
711.56	17175
717.004	17108
722.442	17019
727.874	16949
733.301	16893
738.722	16851
744.137	16856
749.547	16833
754.951	16841
760.349	16831
765.741	16841
771.128	16857
776.509	16906
781.885	16831
787.254	16849
792.618	16785
797.977	16646
803.33	16584
808.677	16446
814.019	16365
819.355	16280
824.686	16202
830.011	16164
835.33	16236
840.644	16193
845.952	16216
851.255	16284
856.552	16272
861.844	16278
867.13	16215
872.41	16172
877.686	16032
882.955	15958
888.219	15820
893.478	15619
898.731	15431
903.979	15279
909.221	15176
914.458	15146
919.69	15126
924.916	15153
930.136	15200
935.351	15237
940.561	15253
945.766	15213
950.965	15151
956.158	15090
961.347	14950
966.529	14677
971.707	14585
976.879	14348
982.046	14260
987.208	14214
992.364	14211
997.515	14288
1002.66	14371
1007.801	14578
1012.936	14703
1018.066	14666
1023.19	14720
1028.309	14663
1033.423	14683
1038.532	14553
1043.636	14422
1048.734	14308
1053.827	14058
1058.915	13881
1063.998	13873
1069.075	13803
1074.147	13848
1079.214	13954
1084.276	14007
1089.333	14111
1094.385	14157
1099.431	14188
1104.472	14153
1109.509	14032
1114.54	13942
1119.565	13785
1124.586	13508
1129.602	13494
1134.613	13344
1139.618	13283
1144.619	13228
1149.614	13261
1154.604	13293
1159.589	13375
1164.57	13330
1169.545	13398
1174.515	13386
1179.48	13314
1184.44	13219
1189.395	13117
1194.345	13053
1199.29	12960
1204.23	12940
1209.165	13049
1214.095	13074
1219.021	13172
1223.941	13216
1228.856	13292
1233.766	13337
1238.672	13365
1243.572	13428
1248.467	13246
1253.358	13157
1258.244	12973
1263.124	12718
1268	12569
1272.871	12357
1277.737	12339
1282.599	12197
1287.455	12323
1292.306	12251
1297.153	12299
1301.995	12399
1306.832	12424
1311.664	12436
1316.491	12418
1321.314	12324
1326.132	12117
1330.945	11842
1335.753	11559
1340.556	11292
1345.354	11013
1350.148	10878
1354.937	10789
1359.722	10771
1364.501	10792
1369.276	10924
1374.046	11057
1378.811	11202
1383.572	11314
1388.327	11356
1393.079	11341
1397.825	11216
1402.567	11023
1407.304	10955
1412.036	10807
1416.764	10749
1421.487	10668
1426.205	10604
1430.919	10619
1435.628	10638
1440.333	10631
1445.032	10628
1449.727	10694
1454.418	10594
1459.104	10502
1463.785	10303
1468.462	10084
1473.134	9864
1477.802	9631
1482.465	9471
1487.123	9331
1491.777	9328
1496.426	9347
1501.071	9507
1505.711	9633
1510.347	9761
1514.978	9894
1519.604	10041
1524.226	10156
1528.844	10195
1533.457	10190
1538.065	10127
1542.669	10105
1547.269	9995
1551.864	9927
1556.454	9930
1561.041	9910
1565.622	9931
1570.199	9982
1574.772	10017
1579.34	10044
1583.904	10123
1588.464	10158
1593.019	10187
1597.569	10158
1602.115	10100
1606.657	10025
1611.195	9950
1615.728	9854
1620.256	9824
1624.78	9807
1629.3	9861
1633.816	9865
1638.327	9916
1642.834	9950
1647.336	9975
1651.834	10053
1656.328	9978
1660.817	9936
1665.302	9816
1669.783	9630
1674.259	9355
1678.732	9088
1683.199	8773
1687.663	8525
1692.122	8217
1696.577	8101
1701.028	8042
1705.474	8141
1709.917	8206
1714.355	8223
1718.788	8147
1723.218	8078
1727.643	7945
1732.064	7791
1736.481	7612
1740.893	7457
1745.301	7249
1749.705	7019
1754.105	6838
1758.501	6670
1762.893	6492
1767.28	6289
1771.663	6176
1776.042	6036
1780.417	5978
1784.787	5959
1789.154	6011
1793.516	6117
1797.874	6218
1802.228	6348
1806.578	6419
1810.924	6397
1815.266	6363
1819.603	6310
1823.937	6226
1828.266	6104
1832.591	6016
1836.913	5962
1841.23	5907
1845.543	5842
1849.852	5805
1854.156	5798
1858.457	5786
1862.754	5766
1867.047	5788
1871.335	5751
1875.62	5740
1879.9	5738
1884.177	5640
1888.449	5616
1892.718	5548
1896.982	5505
1901.243	5462
1905.499	5389
1909.752	5351
1914	5351
1918.245	5377
1922.485	5386
1926.722	5458
1930.954	5498
1935.183	5581
1939.408	5653
1943.628	5685
1947.845	5703
1952.058	5679
1956.267	5634
1960.472	5580
1964.673	5507
1968.87	5420
1973.063	5321
1977.252	5286
1981.438	5217
1985.619	5169
1989.797	5113
1993.971	5079
1998.14	5079
2002.306	5054
2006.469	5045
2010.627	5026
2014.781	4983
2018.932	4937
2023.078	4894
2027.221	4815
2031.36	4742
2035.495	4667
2039.627	4609
2043.754	4550
2047.878	4480
2051.998	4463
2056.114	4451
2060.226	4453
2064.334	4461
2068.439	4442
2072.54	4479
2076.637	4520
2080.73	4522
2084.82	4560
2088.906	4568
2092.988	4575
2097.066	4555
2101.14	4540
2105.211	4523
2109.278	4487
2113.342	4469
2117.401	4440
2121.457	4414
2125.509	4412
2129.558	4370
2133.602	4378
2137.643	4328
2141.681	4325
2145.714	4316
2149.744	4260
2153.77	4251
2157.793	4207
2161.812	4144
2165.827	4110
2169.838	4018
2173.846	3963
2177.851	3930
2181.851	3860
2185.848	3812
2189.841	3768
2193.831	3734
2197.817	3714
2201.799	3658
2205.778	3687
2209.753	3657
2213.725	3624
2217.693	3648
2221.657	3624
2225.618	3566
2229.575	3596
2233.529	3559
2237.479	3525
2241.425	3483
2245.368	3433
2249.307	3440
2253.243	3355
2257.175	3332
2261.104	3285
2265.029	3222
2268.95	3209
2272.868	3156
2276.783	3137
2280.694	3089
2284.601	3089
2288.505	3041
2292.405	3011
2296.302	2998
2300.195	2957
2304.085	2935
2307.971	2889
2311.854	2838
2315.734	2798
2319.609	2782
2323.482	2722
2327.351	2704
2331.216	2724
2335.078	2695
2338.937	2682
2342.792	2638
2346.643	2679
2350.492	2671
2354.336	2684
2358.178	2703
2362.015	2661
2365.85	2700
2369.681	2715
2373.508	2699
2377.333	2701
2381.153	2683
2384.971	2691
2388.785	2666
2392.595	2656
2396.402	2602
2400.206	2606
2404.007	2572
2407.804	2567
2411.597	2543
2415.388	2528
2419.174	2509
2422.958	2506
2426.738	2477
2430.515	2461
2434.289	2439
2438.059	2432
2441.825	2411
2445.589	2402
2449.349	2339
2453.106	2333
2456.859	2277
2460.61	2287
2464.356	2253
2468.1	2221
2471.84	2198
2475.577	2195
2479.311	2154
2483.041	2164
2486.768	2149
2490.492	2174
2494.213	2166
2497.93	2115
2501.644	2114
2505.355	2100
2509.062	2091
2512.766	2086
2516.467	2062
2520.165	2044
2523.859	2030
2527.551	2024
2531.239	1994
2534.923	1983
2538.605	1990
2542.283	1970
2545.958	1971
2549.63	1986
2553.299	1965
2556.964	1941
2560.626	1952
2564.285	1930
2567.941	1942
2571.594	1905
2575.243	1902
2578.89	1880
2582.533	1887
2586.173	1880
2589.809	1847
2593.443	1843
2597.073	1793
2600.701	1809
2604.325	1798
2607.946	1764
2611.564	1771
2615.178	1765
2618.79	1760
2622.398	1724
2626.004	1718
2629.606	1680
2633.205	1660
2636.801	1666
2640.394	1641
2643.983	1628
2647.57	1592
2651.153	1565
2654.734	1552
2658.311	1523
2661.885	1481
2665.456	1495
2669.025	1482
2672.589	1447
2676.151	1419
2679.71	1412
2683.266	1375
2686.819	1368
2690.368	1326
2693.915	1322
2697.458	1284
2700.999	1238
2704.536	1233
2708.071	1201
2711.602	1169
2715.13	1150
2718.656	1127
2722.178	1100
2725.697	1077
2729.214	1072
2732.727	1051
2736.237	1043
2739.744	1047
2743.249	1047
2746.75	1058
2750.248	1052
2753.743	1055
2757.236	1070
2760.725	1095
2764.211	1090
2767.695	1094
2771.175	1097
2774.652	1087
2778.127	1093
2781.598	1087
2785.067	1087
2788.532	1085
2791.995	1074
2795.455	1060
2798.911	1064
2802.365	1090
2805.816	1081
2809.264	1074
2812.709	1077
2816.151	1082
2819.59	1073
2823.026	1067
2826.46	1067
2829.89	1082
2833.318	1071
2836.742	1083
2840.164	1106
2843.583	1097
2846.999	1133
2850.412	1118
2853.822	1140
2857.229	1148
2860.634	1159
2864.035	1174
2867.434	1194
2870.83	1218
2874.223	1248
2877.613	1264
2881	1264
2884.385	1295
2887.766	1301
2891.145	1278
2894.521	1257
2897.894	1268
2901.264	1262
2904.631	1292
2907.996	1268
2911.358	1287
2914.717	1298
2918.073	1296
2921.426	1300
2924.777	1321
2928.124	1342
2931.469	1385
2934.811	1385
2938.15	1390
2941.487	1418
2944.821	1418
2948.152	1409
2951.48	1402
2954.805	1390
2958.128	1376
2961.447	1349
2964.765	1355
2968.079	1340
2971.39	1354
2974.699	1389
2978.005	1414
2981.308	1427
2984.609	1447
2987.907	1484
2991.202	1489
2994.494	1537
2997.784	1556
3001.07	1581
3004.355	1625
3007.636	1646
3010.915	1639
3014.191	1677
3017.464	1677
3020.734	1685
3024.002	1706
3027.267	1714
3030.53	1726
3033.789	1758
3037.046	1750
3040.301	1800
3043.552	1823
3046.801	1866
3050.048	1912
3053.291	1943
3056.532	1990
3059.771	2073
3063.006	2117
3066.239	2195
3069.469	2240
3072.697	2295
3075.922	2341
3079.144	2417
3082.364	2453
3085.581	2500
3088.795	2570
3092.007	2629
3095.216	2669
3098.423	2733
3101.627	2790
3104.828	2849
3108.026	2900
3111.222	2981
3114.416	3028
3117.607	3115
3120.795	3203
3123.98	3232
3127.163	3315
3130.344	3394
3133.521	3472
3136.696	3536
3139.869	3633
3143.039	3676
3146.206	3743
3149.371	3784
3152.533	3816
3155.693	3854
3158.85	3845
3162.005	3866
3165.157	3885
3168.306	3880
3171.453	3909
3174.597	3887
3177.739	3893
3180.878	3903
3184.014	3949
3187.149	3938
3190.28	3940
3193.409	3953
3196.536	3951
3199.659	3946
3202.781	3936
3205.9	3956
3209.016	3917
3212.13	3928
3215.241	3910
3218.35	3858
3221.456	3815
3224.56	3783
3227.661	3725
3230.76	3678
3233.856	3655
3236.95	3576
3240.041	3573
3243.13	3553
3246.216	3544
3249.3	3497
3252.382	3476
3255.46	3496
3258.537	3468
3261.611	3511
3264.682	3488
3267.751	3479
3270.818	3455
3273.882	3428
3276.943	3433
3280.002	3399
3283.059	3361
3286.113	3312
3289.165	3280
3292.214	3268
3295.261	3177
3298.306	3142
3301.348	3086
3304.387	3015
3307.425	2981
3310.459	2933
3313.492	2913
3316.521	2865
3319.549	2824
3322.574	2804
3325.597	2775
3328.617	2731
3331.635	2766
3334.65	2716
3337.663	2688
3340.674	2679
3343.682	2692
3346.688	2679
3349.691	2652
3352.692	2644
3355.691	2630
3358.687	2607
3361.681	2578
3364.673	2547
3367.662	2480
3370.649	2458
3373.633	2433
3376.615	2372
3379.595	2367
3382.572	2324
3385.547	2284
3388.52	2273
3391.49	2210
3394.458	2180
3397.424	2134
3400.387	2112
3403.348	2096
3406.307	2050
3409.263	2062
3412.217	2024
3415.168	1996
3418.118	1983
3421.065	1951
3424.009	1898
3426.951	1893
3429.891	1847
3432.829	1809
3435.764	1772
3438.697	1740
3441.628	1676
3444.557	1621
3447.483	1577
3450.407	1524
3453.328	1457
3456.247	1426
3459.164	1362
3462.079	1328
3464.991	1258
3467.902	1219
3470.809	1193
3473.715	1124
3476.618	1100
3479.519	1061
3482.418	1020
3485.315	986
3488.209	935
3491.101	908
3493.99	869
3496.878	835
3499.763	803
3502.646	781
3505.527	734
3508.405	690
3511.281	654
3514.155	616
3517.027	567
3519.897	539
3522.764	509
3525.629	460
3528.492	428
3531.352	378
3534.211	343
3537.067	301
3539.921	264
3542.773	248
3545.622	210
3548.469	180
3551.315	152
3554.157	129
3556.998	112
3559.837	81
3562.673	55
3565.507	32
3568.339	16
3571.169	-15
3573.996	-29
3576.822	-34
3579.645	-55
3582.466	-86
3585.285	-108
3588.101	-115
3590.916	-141
3593.728	-165
3596.538	-180
3599.346	-199
3602.152	-204
3604.956	-222
3607.757	-243
3610.556	-251
3613.354	-266
3616.149	-276
3618.942	-298
3621.732	-300
3624.521	-308
3627.307	-319
3630.092	-328
3632.874	-347
3635.654	-341
3638.432	-356
3641.208	-362
3643.982	-381
3646.753	-375
3649.523	-390
3652.29	-401
3655.055	-409
3657.818	-416
3660.579	-424
3663.338	-435
3666.095	-446
3668.849	-454
3671.602	-463
3674.352	-468
3677.101	-474
3679.847	-489
3682.591	-490
3685.333	-499
3688.073	-501
3690.811	-511
3693.547	-506
3696.281	-520
3699.013	-522
3701.742	-526
3704.47	-533
3707.195	-543
3709.919	-540
3712.64	-541
3715.359	-546
3718.076	-548
3720.792	-553
3723.505	-556
3726.216	-562
3728.925	-559
3731.632	-573
3734.336	-574
3737.039	-582
3739.74	-577
3742.439	-583
3745.136	-578
3747.83	-585
3750.523	-581
3753.213	-592
3755.902	-589
3758.589	-588
3761.273	-587
3763.956	-597
3766.636	-595
3769.315	-599
3771.991	-598
3774.665	-599
3777.338	-599
3780.008	-598
3782.677	-603
3785.343	-609
3788.007	-599
3790.67	-612
3793.33	-614
3795.989	-615
3798.645	-615
3801.299	-620
3803.952	-620
3806.602	-616
3809.251	-621
3811.897	-609
3814.542	-610
3817.184	-611
3819.825	-618
3822.463	-615
3825.1	-623
3827.735	-622
3830.367	-624
3832.998	-627
3835.627	-623
3838.253	-630
3840.878	-631
3843.501	-629
3846.122	-624
3848.741	-626
3851.358	-629
3853.973	-631
3856.586	-624
3859.197	-626
3861.806	-627
3864.414	-624
3867.019	-627
3869.622	-630
3872.224	-625
3874.823	-612
3877.421	-602
3880.016	-590
3882.61	-560
3885.202	-566
3887.792	-581
3890.38	-605
3892.966	-624
3895.55	-627
3898.132	-640
3900.713	-639
3903.291	-645
3905.868	-643
3908.442	-640
3911.015	-639
3913.586	-640
3916.155	-640
3918.722	-639
3921.287	-642
3923.85	-647
3926.411	-643
3928.971	-644
3931.528	-642
3934.084	-638
3936.638	-644
3939.19	-647
3941.74	-651
3944.288	-651
3946.834	-647
3949.378	-645
3951.921	-643
3954.462	-648
3957	-641
3959.537	-638
3962.072	-640
3964.606	-641
3967.137	-644
3969.667	-647
3972.194	-639
3974.72	-642
3977.244	-637
3979.766	-641
3982.286	-629
3984.805	-625
3987.321	-629
3989.836	-632
3992.349	-632
3994.86	-626
3997.369	-640
3999.877	-626
4002.382	-631
4004.886	-633
4007.388	-638
4009.888	-632
4012.386	-633
4014.883	-634
4017.377	-632
4019.87	-625
4022.361	-632
4024.85	-633
4027.338	-636
4029.823	-631
4032.307	-638
4034.789	-637
4037.269	-642
4039.747	-640
4042.224	-638
4044.699	-637
4047.172	-636
4049.643	-637
4052.112	-635
4054.58	-629
4057.046	-639
4059.51	-638
4061.972	-637
4064.432	-636
4066.891	-635
4069.348	-643
4071.803	-638
4074.256	-636
4076.708	-636
4079.158	-632
4081.606	-631
4084.052	-632
4086.497	-635
4088.939	-630
4091.38	-624
4093.819	-629
4096.257	-669
4098.693	-669
4101.127	-672
4103.559	-670
4105.989	-398
4108.418	-382
4110.845	-361
4113.27	-338
4115.694	-292
4118.115	-244
4120.535	-630
4122.954	-637
4125.37	-634
4127.785	-630
4130.198	-635
4132.609	-631
4135.019	-672
4137.427	-671
4139.833	-669
4142.237	-665
