Data from 2018-2-7_conc=02_RamanShift_12.txt Node
Date: Tue Feb 13 11:33:14 IST 2018
User: aro
Spectrometer: QEPB0276
Trigger mode: 0
Integration Time (sec): 3.000000E1
Scans to average: 1
Electric dark correction enabled: true
Nonlinearity correction enabled: false
Boxcar width: 0
XAxis mode: Raman Shifts
Number of Pixels in Spectrum: 1044
>>>>>Begin Spectral Data<<<<<
160.701	-159
166.742	26
172.777	571
178.805	2181
184.826	5976
190.841	12258
196.849	19442
202.85	24280
208.845	25729
214.833	25490
220.815	24957
226.789	24709
232.758	24610
238.719	24343
244.674	24052
250.623	23517
256.565	23051
262.5	22469
268.429	22017
274.351	21663
280.267	21358
286.176	21101
292.079	20867
297.975	20617
303.865	20426
309.748	20265
315.625	20073
321.495	20044
327.359	19918
333.217	19916
339.068	19848
344.912	19786
350.751	19798
356.583	19770
362.408	19806
368.227	19758
374.04	19798
379.847	19780
385.647	19871
391.44	19940
397.228	20005
403.009	20139
408.784	20173
414.553	20266
420.315	20317
426.071	20263
431.821	20314
437.565	20240
443.302	20244
449.033	20201
454.758	20221
460.477	20101
466.189	20079
471.896	20048
477.596	19948
483.29	19962
488.978	19941
494.66	19802
500.335	19698
506.005	19460
511.668	19247
517.325	19040
522.977	18837
528.622	18676
534.261	18594
539.894	18513
545.521	18395
551.141	18365
556.756	18289
562.365	18210
567.968	18174
573.565	18082
579.155	18030
584.74	17901
590.319	17851
595.892	17776
601.459	17713
607.02	17639
612.575	17572
618.124	17387
623.667	17281
629.204	17267
634.735	17141
640.261	17110
645.781	17008
651.294	17007
656.802	17004
662.304	16929
667.8	16889
673.29	16945
678.775	16840
684.254	16763
689.726	16740
695.193	16730
700.655	16582
706.11	16505
711.56	16443
717.004	16338
722.442	16246
727.874	16244
733.301	16103
738.722	16140
744.137	16070
749.547	16064
754.951	16065
760.349	16075
765.741	16043
771.128	16127
776.509	16084
781.885	16126
787.254	16081
792.618	15991
797.977	15889
803.33	15796
808.677	15728
814.019	15670
819.355	15506
824.686	15461
830.011	15375
835.33	15439
840.644	15424
845.952	15476
851.255	15545
856.552	15509
861.844	15469
867.13	15476
872.41	15365
877.686	15266
882.955	15106
888.219	15044
893.478	14859
898.731	14714
903.979	14569
909.221	14481
914.458	14348
919.69	14369
924.916	14416
930.136	14468
935.351	14477
940.561	14463
945.766	14465
950.965	14393
956.158	14275
961.347	14181
966.529	13920
971.707	13797
976.879	13562
982.046	13543
987.208	13475
992.364	13436
997.515	13555
1002.66	13673
1007.801	13791
1012.936	13912
1018.066	13936
1023.19	13921
1028.309	13915
1033.423	13877
1038.532	13794
1043.636	13738
1048.734	13479
1053.827	13353
1058.915	13209
1063.998	13101
1069.075	13045
1074.147	13098
1079.214	13128
1084.276	13241
1089.333	13327
1094.385	13395
1099.431	13394
1104.472	13386
1109.509	13284
1114.54	13150
1119.565	13018
1124.586	12838
1129.602	12680
1134.613	12610
1139.618	12538
1144.619	12513
1149.614	12511
1154.604	12524
1159.589	12577
1164.57	12611
1169.545	12584
1174.515	12653
1179.48	12569
1184.44	12424
1189.395	12351
1194.345	12260
1199.29	12219
1204.23	12247
1209.165	12263
1214.095	12317
1219.021	12393
1223.941	12473
1228.856	12488
1233.766	12549
1238.672	12555
1243.572	12617
1248.467	12467
1253.358	12344
1258.244	12161
1263.124	11994
1268	11834
1272.871	11689
1277.737	11541
1282.599	11531
1287.455	11535
1292.306	11518
1297.153	11591
1301.995	11662
1306.832	11706
1311.664	11650
1316.491	11667
1321.314	11528
1326.132	11397
1330.945	11186
1335.753	10882
1340.556	10635
1345.354	10375
1350.148	10242
1354.937	10143
1359.722	10109
1364.501	10127
1369.276	10240
1374.046	10361
1378.811	10471
1383.572	10551
1388.327	10615
1393.079	10601
1397.825	10479
1402.567	10301
1407.304	10216
1412.036	10130
1416.764	10082
1421.487	10019
1426.205	9924
1430.919	9935
1435.628	9924
1440.333	9886
1445.032	9999
1449.727	10003
1454.418	10023
1459.104	9905
1463.785	9694
1468.462	9479
1473.134	9285
1477.802	9141
1482.465	8951
1487.123	8831
1491.777	8799
1496.426	8777
1501.071	8873
1505.711	9020
1510.347	9208
1514.978	9311
1519.604	9400
1524.226	9508
1528.844	9562
1533.457	9533
1538.065	9496
1542.669	9442
1547.269	9409
1551.864	9340
1556.454	9324
1561.041	9315
1565.622	9327
1570.199	9316
1574.772	9410
1579.34	9438
1583.904	9510
1588.464	9532
1593.019	9571
1597.569	9539
1602.115	9516
1606.657	9432
1611.195	9392
1615.728	9304
1620.256	9327
1624.78	9279
1629.3	9347
1633.816	9356
1638.327	9390
1642.834	9451
1647.336	9497
1651.834	9478
1656.328	9492
1660.817	9444
1665.302	9282
1669.783	9154
1674.259	8928
1678.732	8666
1683.199	8371
1687.663	8065
1692.122	7820
1696.577	7680
1701.028	7630
1705.474	7636
1709.917	7721
1714.355	7691
1718.788	7666
1723.218	7578
1727.643	7430
1732.064	7288
1736.481	7133
1740.893	6991
1745.301	6786
1749.705	6574
1754.105	6421
1758.501	6228
1762.893	6042
1767.28	5943
1771.663	5762
1776.042	5658
1780.417	5643
1784.787	5615
1789.154	5656
1793.516	5722
1797.874	5816
1802.228	5891
1806.578	5978
1810.924	5967
1815.266	5932
1819.603	5841
1823.937	5775
1828.266	5644
1832.591	5570
1836.913	5507
1841.23	5469
1845.543	5446
1849.852	5424
1854.156	5382
1858.457	5386
1862.754	5352
1867.047	5378
1871.335	5358
1875.62	5365
1879.9	5351
1884.177	5297
1888.449	5260
1892.718	5201
1896.982	5107
1901.243	5086
1905.499	5039
1909.752	5034
1914	4977
1918.245	5003
1922.485	5029
1926.722	5081
1930.954	5147
1935.183	5206
1939.408	5259
1943.628	5288
1947.845	5314
1952.058	5317
1956.267	5261
1960.472	5198
1964.673	5083
1968.87	5058
1973.063	4981
1977.252	4886
1981.438	4852
1985.619	4792
1989.797	4764
1993.971	4744
1998.14	4737
2002.306	4700
2006.469	4694
2010.627	4686
2014.781	4642
2018.932	4592
2023.078	4590
2027.221	4510
2031.36	4443
2035.495	4363
2039.627	4293
2043.754	4273
2047.878	4224
2051.998	4199
2056.114	4182
2060.226	4134
2064.334	4163
2068.439	4180
2072.54	4186
2076.637	4207
2080.73	4244
2084.82	4299
2088.906	4284
2092.988	4311
2097.066	4260
2101.14	4256
2105.211	4219
2109.278	4183
2113.342	4188
2117.401	4157
2121.457	4139
2125.509	4116
2129.558	4102
2133.602	4054
2137.643	4059
2141.681	4027
2145.714	4011
2149.744	3965
2153.77	3929
2157.793	3907
2161.812	3855
2165.827	3816
2169.838	3774
2173.846	3696
2177.851	3647
2181.851	3575
2185.848	3537
2189.841	3519
2193.831	3460
2197.817	3452
2201.799	3391
2205.778	3413
2209.753	3383
2213.725	3375
2217.693	3370
2221.657	3363
2225.618	3325
2229.575	3319
2233.529	3295
2237.479	3261
2241.425	3222
2245.368	3218
2249.307	3156
2253.243	3113
2257.175	3074
2261.104	3036
2265.029	2956
2268.95	2950
2272.868	2920
2276.783	2874
2280.694	2852
2284.601	2826
2288.505	2796
2292.405	2770
2296.302	2739
2300.195	2736
2304.085	2664
2307.971	2649
2311.854	2611
2315.734	2593
2319.609	2533
2323.482	2497
2327.351	2485
2331.216	2477
2335.078	2452
2338.937	2454
2342.792	2451
2346.643	2427
2350.492	2415
2354.336	2411
2358.178	2428
2362.015	2440
2365.85	2448
2369.681	2436
2373.508	2448
2377.333	2448
2381.153	2447
2384.971	2431
2388.785	2407
2392.595	2403
2396.402	2370
2400.206	2357
2404.007	2320
2407.804	2325
2411.597	2298
2415.388	2278
2419.174	2278
2422.958	2261
2426.738	2233
2430.515	2228
2434.289	2231
2438.059	2191
2441.825	2161
2445.589	2155
2449.349	2118
2453.106	2078
2456.859	2054
2460.61	2051
2464.356	2017
2468.1	1998
2471.84	1969
2475.577	1950
2479.311	1925
2483.041	1938
2486.768	1913
2490.492	1928
2494.213	1905
2497.93	1892
2501.644	1884
2505.355	1889
2509.062	1881
2512.766	1843
2516.467	1838
2520.165	1832
2523.859	1821
2527.551	1811
2531.239	1794
2534.923	1771
2538.605	1760
2542.283	1758
2545.958	1754
2549.63	1760
2553.299	1756
2556.964	1745
2560.626	1760
2564.285	1713
2567.941	1725
2571.594	1701
2575.243	1721
2578.89	1702
2582.533	1671
2586.173	1656
2589.809	1641
2593.443	1623
2597.073	1611
2600.701	1615
2604.325	1596
2607.946	1589
2611.564	1583
2615.178	1576
2618.79	1546
2622.398	1541
2626.004	1536
2629.606	1513
2633.205	1475
2636.801	1469
2640.394	1439
2643.983	1421
2647.57	1421
2651.153	1387
2654.734	1381
2658.311	1344
2661.885	1332
2665.456	1313
2669.025	1286
2672.589	1296
2676.151	1274
2679.71	1243
2683.266	1230
2686.819	1210
2690.368	1192
2693.915	1149
2697.458	1127
2700.999	1118
2704.536	1075
2708.071	1044
2711.602	1035
2715.13	1025
2718.656	984
2722.178	967
2725.697	952
2729.214	943
2732.727	943
2736.237	932
2739.744	911
2743.249	932
2746.75	931
2750.248	931
2753.743	937
2757.236	953
2760.725	956
2764.211	965
2767.695	985
2771.175	962
2774.652	970
2778.127	974
2781.598	956
2785.067	941
2788.532	957
2791.995	951
2795.455	957
2798.911	945
2802.365	950
2805.816	962
2809.264	956
2812.709	955
2816.151	948
2819.59	946
2823.026	939
2826.46	954
2829.89	959
2833.318	955
2836.742	968
2840.164	974
2843.583	986
2846.999	1001
2850.412	984
2853.822	1033
2857.229	1027
2860.634	1057
2864.035	1101
2867.434	1088
2870.83	1109
2874.223	1134
2877.613	1150
2881	1169
2884.385	1195
2887.766	1169
2891.145	1200
2894.521	1178
2897.894	1169
2901.264	1172
2904.631	1170
2907.996	1189
2911.358	1194
2914.717	1200
2918.073	1220
2921.426	1231
2924.777	1252
2928.124	1265
2931.469	1279
2934.811	1328
2938.15	1307
2941.487	1362
2944.821	1349
2948.152	1343
2951.48	1343
2954.805	1328
2958.128	1327
2961.447	1308
2964.765	1294
2968.079	1286
2971.39	1322
2974.699	1323
2978.005	1371
2981.308	1365
2984.609	1400
2987.907	1420
2991.202	1430
2994.494	1476
2997.784	1505
3001.07	1537
3004.355	1556
3007.636	1589
3010.915	1583
3014.191	1606
3017.464	1639
3020.734	1634
3024.002	1665
3027.267	1656
3030.53	1673
3033.789	1701
3037.046	1712
3040.301	1746
3043.552	1798
3046.801	1820
3050.048	1860
3053.291	1901
3056.532	1956
3059.771	2012
3063.006	2082
3066.239	2152
3069.469	2193
3072.697	2258
3075.922	2311
3079.144	2366
3082.364	2425
3085.581	2477
3088.795	2532
3092.007	2601
3095.216	2651
3098.423	2697
3101.627	2751
3104.828	2822
3108.026	2876
3111.222	2980
3114.416	3019
3117.607	3090
3120.795	3164
3123.98	3246
3127.163	3327
3130.344	3412
3133.521	3466
3136.696	3572
3139.869	3621
3143.039	3688
3146.206	3766
3149.371	3793
3152.533	3826
3155.693	3852
3158.85	3863
3162.005	3896
3165.157	3895
3168.306	3930
3171.453	3932
3174.597	3916
3177.739	3931
3180.878	3931
3184.014	3969
3187.149	3964
3190.28	3944
3193.409	3972
3196.536	3992
3199.659	3994
3202.781	3994
3205.9	3990
3209.016	3989
3212.13	3958
3215.241	3950
3218.35	3890
3221.456	3858
3224.56	3844
3227.661	3815
3230.76	3756
3233.856	3690
3236.95	3693
3240.041	3657
3243.13	3622
3246.216	3593
3249.3	3567
3252.382	3550
3255.46	3560
3258.537	3545
3261.611	3543
3264.682	3507
3267.751	3535
3270.818	3509
3273.882	3507
3276.943	3500
3280.002	3475
3283.059	3435
3286.113	3391
3289.165	3373
3292.214	3284
3295.261	3266
3298.306	3194
3301.348	3131
3304.387	3083
3307.425	3054
3310.459	3016
3313.492	2960
3316.521	2924
3319.549	2876
3322.574	2856
3325.597	2822
3328.617	2784
3331.635	2793
3334.65	2776
3337.663	2752
3340.674	2752
3343.682	2742
3346.688	2728
3349.691	2719
3352.692	2700
3355.691	2676
3358.687	2645
3361.681	2616
3364.673	2598
3367.662	2541
3370.649	2512
3373.633	2499
3376.615	2440
3379.595	2407
3382.572	2366
3385.547	2340
3388.52	2319
3391.49	2266
3394.458	2236
3397.424	2199
3400.387	2155
3403.348	2151
3406.307	2125
3409.263	2124
3412.217	2066
3415.168	2044
3418.118	2047
3421.065	1998
3424.009	1946
3426.951	1927
3429.891	1886
3432.829	1856
3435.764	1825
3438.697	1792
3441.628	1735
3444.557	1676
3447.483	1616
3450.407	1568
3453.328	1500
3456.247	1472
3459.164	1416
3462.079	1370
3464.991	1320
3467.902	1255
3470.809	1225
3473.715	1146
3476.618	1134
3479.519	1096
3482.418	1055
3485.315	1007
3488.209	972
3491.101	960
3493.99	917
3496.878	871
3499.763	844
3502.646	822
3505.527	779
3508.405	744
3511.281	685
3514.155	657
3517.027	607
3519.897	577
3522.764	533
3525.629	485
3528.492	457
3531.352	415
3534.211	376
3537.067	342
3539.921	313
3542.773	278
3545.622	233
3548.469	207
3551.315	170
3554.157	153
3556.998	130
3559.837	103
3562.673	71
3565.507	67
3568.339	40
3571.169	18
3573.996	1
3576.822	-14
3579.645	-46
3582.466	-65
3585.285	-76
3588.101	-94
3590.916	-112
3593.728	-149
3596.538	-151
3599.346	-185
3602.152	-187
3604.956	-206
3607.757	-218
3610.556	-239
3613.354	-247
3616.149	-260
3618.942	-273
3621.732	-282
3624.521	-296
3627.307	-311
3630.092	-312
3632.874	-322
3635.654	-333
3638.432	-346
3641.208	-337
3643.982	-357
3646.753	-371
3649.523	-387
3652.29	-392
3655.055	-396
3657.818	-417
3660.579	-422
3663.338	-426
3666.095	-450
3668.849	-450
3671.602	-459
3674.352	-460
3677.101	-463
3679.847	-485
3682.591	-477
3685.333	-492
3688.073	-484
3690.811	-492
3693.547	-505
3696.281	-516
3699.013	-509
3701.742	-521
3704.47	-522
3707.195	-530
3709.919	-532
3712.64	-530
3715.359	-537
3718.076	-544
3720.792	-543
3723.505	-551
3726.216	-547
3728.925	-551
3731.632	-559
3734.336	-562
3737.039	-564
3739.74	-560
3742.439	-569
3745.136	-571
3747.83	-573
3750.523	-575
3753.213	-585
3755.902	-583
3758.589	-579
3761.273	-573
3763.956	-587
3766.636	-583
3769.315	-587
3771.991	-592
3774.665	-587
3777.338	-591
3780.008	-591
3782.677	-596
3785.343	-595
3788.007	-594
3790.67	-594
3793.33	-604
3795.989	-607
3798.645	-606
3801.299	-604
3803.952	-607
3806.602	-602
3809.251	-613
3811.897	-600
3814.542	-603
3817.184	-609
3819.825	-607
3822.463	-609
3825.1	-613
3827.735	-614
3830.367	-613
3832.998	-617
3835.627	-617
3838.253	-620
3840.878	-622
3843.501	-622
3846.122	-618
3848.741	-617
3851.358	-617
3853.973	-613
3856.586	-612
3859.197	-623
3861.806	-618
3864.414	-617
3867.019	-619
3869.622	-623
3872.224	-617
3874.823	-603
3877.421	-593
3880.016	-582
3882.61	-549
3885.202	-545
3887.792	-565
3890.38	-593
3892.966	-611
3895.55	-619
3898.132	-622
3900.713	-630
3903.291	-628
3905.868	-624
3908.442	-628
3911.015	-631
3913.586	-634
3916.155	-631
3918.722	-629
3921.287	-635
3923.85	-632
3926.411	-634
3928.971	-631
3931.528	-634
3934.084	-626
3936.638	-635
3939.19	-634
3941.74	-636
3944.288	-637
3946.834	-639
3949.378	-640
3951.921	-639
3954.462	-633
3957	-630
3959.537	-629
3962.072	-633
3964.606	-632
3967.137	-636
3969.667	-634
3972.194	-635
3974.72	-629
3977.244	-626
3979.766	-622
3982.286	-621
3984.805	-612
3987.321	-621
3989.836	-622
3992.349	-624
3994.86	-623
3997.369	-629
3999.877	-626
4002.382	-625
4004.886	-626
4007.388	-626
4009.888	-620
4012.386	-625
4014.883	-624
4017.377	-618
4019.87	-615
4022.361	-618
4024.85	-627
4027.338	-624
4029.823	-622
4032.307	-623
4034.789	-624
4037.269	-629
4039.747	-631
4042.224	-626
4044.699	-624
4047.172	-629
4049.643	-623
4052.112	-616
4054.58	-619
4057.046	-630
4059.51	-626
4061.972	-630
4064.432	-623
4066.891	-622
4069.348	-627
4071.803	-625
4074.256	-623
4076.708	-627
4079.158	-628
4081.606	-619
4084.052	-616
4086.497	-624
4088.939	-615
4091.38	-617
4093.819	-621
4096.257	-657
4098.693	-661
4101.127	-659
4103.559	-659
4105.989	-395
4108.418	-372
4110.845	-347
4113.27	-329
4115.694	-288
4118.115	-241
4120.535	-625
4122.954	-628
4125.37	-623
4127.785	-618
4130.198	-624
4132.609	-622
4135.019	-657
4137.427	-656
4139.833	-651
4142.237	-655
