Data from 2018-2-7_conc=2_RamanShift_08.txt Node
Date: Tue Feb 13 11:48:14 IST 2018
User: aro
Spectrometer: QEPB0276
Trigger mode: 0
Integration Time (sec): 3.000000E1
Scans to average: 1
Electric dark correction enabled: true
Nonlinearity correction enabled: false
Boxcar width: 0
XAxis mode: Raman Shifts
Number of Pixels in Spectrum: 1044
>>>>>Begin Spectral Data<<<<<
160.701	-154
166.742	28
172.777	575
178.805	2220
184.826	6083
190.841	12513
196.849	19757
202.85	24770
208.845	26270
214.833	25959
220.815	25527
226.789	25269
232.758	24987
238.719	24864
244.674	24534
250.623	23970
256.565	23478
262.5	22896
268.429	22488
274.351	22098
280.267	21796
286.176	21491
292.079	21246
297.975	21060
303.865	20857
309.748	20675
315.625	20555
321.495	20404
327.359	20304
333.217	20232
339.068	20218
344.912	20218
350.751	20177
356.583	20124
362.408	20132
368.227	20181
374.04	20178
379.847	20222
385.647	20312
391.44	20429
397.228	20422
403.009	20498
408.784	20571
414.553	20719
420.315	20674
426.071	20753
431.821	20746
437.565	20668
443.302	20637
449.033	20647
454.758	20538
460.477	20538
466.189	20534
471.896	20405
477.596	20379
483.29	20358
488.978	20270
494.66	20213
500.335	20059
506.005	19824
511.668	19572
517.325	19356
522.977	19137
528.622	19056
534.261	18960
539.894	18804
545.521	18766
551.141	18592
556.756	18615
562.365	18531
567.968	18441
573.565	18391
579.155	18249
584.74	18216
590.319	18175
595.892	18086
601.459	17989
607.02	17921
612.575	17820
618.124	17667
623.667	17633
629.204	17503
634.735	17426
640.261	17383
645.781	17298
651.294	17227
656.802	17295
662.304	17172
667.8	17164
673.29	17177
678.775	17126
684.254	17027
689.726	16979
695.193	16960
700.655	16885
706.11	16768
711.56	16693
717.004	16609
722.442	16515
727.874	16483
733.301	16423
738.722	16380
744.137	16338
749.547	16328
754.951	16314
760.349	16342
765.741	16369
771.128	16323
776.509	16356
781.885	16361
787.254	16288
792.618	16209
797.977	16188
803.33	16030
808.677	15913
814.019	15857
819.355	15818
824.686	15693
830.011	15620
835.33	15674
840.644	15661
845.952	15732
851.255	15774
856.552	15734
861.844	15729
867.13	15728
872.41	15639
877.686	15503
882.955	15408
888.219	15203
893.478	15088
898.731	14914
903.979	14723
909.221	14680
914.458	14585
919.69	14603
924.916	14602
930.136	14702
935.351	14691
940.561	14653
945.766	14639
950.965	14582
956.158	14493
961.347	14335
966.529	14097
971.707	13930
976.879	13768
982.046	13658
987.208	13638
992.364	13650
997.515	13692
1002.66	13859
1007.801	13997
1012.936	14108
1018.066	14130
1023.19	14112
1028.309	14143
1033.423	14074
1038.532	13949
1043.636	13891
1048.734	13716
1053.827	13513
1058.915	13357
1063.998	13282
1069.075	13230
1074.147	13259
1079.214	13318
1084.276	13359
1089.333	13493
1094.385	13552
1099.431	13565
1104.472	13554
1109.509	13486
1114.54	13314
1119.565	13114
1124.586	13014
1129.602	12904
1134.613	12778
1139.618	12712
1144.619	12649
1149.614	12638
1154.604	12677
1159.589	12665
1164.57	12755
1169.545	12770
1174.515	12751
1179.48	12660
1184.44	12630
1189.395	12511
1194.345	12436
1199.29	12343
1204.23	12399
1209.165	12423
1214.095	12491
1219.021	12535
1223.941	12633
1228.856	12697
1233.766	12740
1238.672	12770
1243.572	12739
1248.467	12611
1253.358	12507
1258.244	12324
1263.124	12094
1268	11939
1272.871	11858
1277.737	11699
1282.599	11651
1287.455	11611
1292.306	11697
1297.153	11676
1301.995	11784
1306.832	11806
1311.664	11833
1316.491	11785
1321.314	11595
1326.132	11452
1330.945	11238
1335.753	10930
1340.556	10698
1345.354	10458
1350.148	10321
1354.937	10272
1359.722	10264
1364.501	10356
1369.276	10393
1374.046	10567
1378.811	10663
1383.572	10792
1388.327	10811
1393.079	10734
1397.825	10599
1402.567	10502
1407.304	10314
1412.036	10221
1416.764	10194
1421.487	10108
1426.205	10052
1430.919	10040
1435.628	10027
1440.333	10018
1445.032	10075
1449.727	10065
1454.418	10117
1459.104	9967
1463.785	9751
1468.462	9565
1473.134	9327
1477.802	9168
1482.465	9001
1487.123	8909
1491.777	8944
1496.426	8937
1501.071	9042
1505.711	9138
1510.347	9327
1514.978	9494
1519.604	9565
1524.226	9673
1528.844	9724
1533.457	9677
1538.065	9679
1542.669	9574
1547.269	9504
1551.864	9457
1556.454	9461
1561.041	9447
1565.622	9429
1570.199	9517
1574.772	9507
1579.34	9571
1583.904	9648
1588.464	9707
1593.019	9685
1597.569	9644
1602.115	9623
1606.657	9537
1611.195	9552
1615.728	9470
1620.256	9398
1624.78	9410
1629.3	9457
1633.816	9427
1638.327	9515
1642.834	9532
1647.336	9599
1651.834	9568
1656.328	9572
1660.817	9497
1665.302	9424
1669.783	9227
1674.259	9019
1678.732	8774
1683.199	8430
1687.663	8140
1692.122	7895
1696.577	7835
1701.028	7788
1705.474	7873
1709.917	7924
1714.355	7902
1718.788	7769
1723.218	7670
1727.643	7549
1732.064	7397
1736.481	7230
1740.893	7055
1745.301	6862
1749.705	6696
1754.105	6489
1758.501	6318
1762.893	6112
1767.28	5980
1771.663	5838
1776.042	5754
1780.417	5757
1784.787	5758
1789.154	5814
1793.516	5904
1797.874	6044
1802.228	6131
1806.578	6128
1810.924	6122
1815.266	6078
1819.603	5958
1823.937	5889
1828.266	5759
1832.591	5718
1836.913	5629
1841.23	5586
1845.543	5575
1849.852	5502
1854.156	5529
1858.457	5476
1862.754	5502
1867.047	5478
1871.335	5482
1875.62	5437
1879.9	5434
1884.177	5408
1888.449	5363
1892.718	5274
1896.982	5235
1901.243	5205
1905.499	5172
1909.752	5139
1914	5126
1918.245	5158
1922.485	5187
1926.722	5265
1930.954	5285
1935.183	5385
1939.408	5433
1943.628	5456
1947.845	5470
1952.058	5457
1956.267	5402
1960.472	5334
1964.673	5252
1968.87	5176
1973.063	5123
1977.252	5046
1981.438	4946
1985.619	4924
1989.797	4908
1993.971	4849
1998.14	4839
2002.306	4839
2006.469	4807
2010.627	4765
2014.781	4738
2018.932	4728
2023.078	4675
2027.221	4601
2031.36	4557
2035.495	4468
2039.627	4415
2043.754	4346
2047.878	4335
2051.998	4282
2056.114	4237
2060.226	4285
2064.334	4263
2068.439	4273
2072.54	4328
2076.637	4353
2080.73	4380
2084.82	4390
2088.906	4376
2092.988	4433
2097.066	4399
2101.14	4382
2105.211	4362
2109.278	4321
2113.342	4295
2117.401	4276
2121.457	4232
2125.509	4258
2129.558	4184
2133.602	4196
2137.643	4153
2141.681	4130
2145.714	4122
2149.744	4097
2153.77	4054
2157.793	4021
2161.812	3973
2165.827	3891
2169.838	3846
2173.846	3781
2177.851	3732
2181.851	3685
2185.848	3604
2189.841	3568
2193.831	3564
2197.817	3519
2201.799	3474
2205.778	3505
2209.753	3451
2213.725	3449
2217.693	3429
2221.657	3424
2225.618	3458
2229.575	3422
2233.529	3402
2237.479	3368
2241.425	3336
2245.368	3295
2249.307	3227
2253.243	3217
2257.175	3141
2261.104	3084
2265.029	3047
2268.95	3029
2272.868	2997
2276.783	2968
2280.694	2932
2284.601	2918
2288.505	2875
2292.405	2874
2296.302	2815
2300.195	2793
2304.085	2753
2307.971	2713
2311.854	2709
2315.734	2615
2319.609	2605
2323.482	2574
2327.351	2549
2331.216	2531
2335.078	2521
2338.937	2516
2342.792	2473
2346.643	2473
2350.492	2492
2354.336	2486
2358.178	2490
2362.015	2472
2365.85	2504
2369.681	2503
2373.508	2505
2377.333	2478
2381.153	2494
2384.971	2475
2388.785	2472
2392.595	2434
2396.402	2396
2400.206	2385
2404.007	2384
2407.804	2358
2411.597	2331
2415.388	2315
2419.174	2288
2422.958	2297
2426.738	2292
2430.515	2245
2434.289	2232
2438.059	2209
2441.825	2178
2445.589	2157
2449.349	2151
2453.106	2125
2456.859	2088
2460.61	2045
2464.356	2015
2468.1	2014
2471.84	1981
2475.577	1985
2479.311	1947
2483.041	1973
2486.768	1941
2490.492	1936
2494.213	1941
2497.93	1919
2501.644	1923
2505.355	1905
2509.062	1904
2512.766	1889
2516.467	1870
2520.165	1865
2523.859	1868
2527.551	1859
2531.239	1826
2534.923	1808
2538.605	1802
2542.283	1804
2545.958	1792
2549.63	1794
2553.299	1792
2556.964	1785
2560.626	1805
2564.285	1780
2567.941	1761
2571.594	1750
2575.243	1746
2578.89	1730
2582.533	1713
2586.173	1707
2589.809	1688
2593.443	1669
2597.073	1658
2600.701	1643
2604.325	1614
2607.946	1618
2611.564	1602
2615.178	1600
2618.79	1602
2622.398	1537
2626.004	1556
2629.606	1526
2633.205	1509
2636.801	1484
2640.394	1472
2643.983	1441
2647.57	1418
2651.153	1415
2654.734	1391
2658.311	1357
2661.885	1346
2665.456	1325
2669.025	1320
2672.589	1315
2676.151	1269
2679.71	1258
2683.266	1239
2686.819	1216
2690.368	1192
2693.915	1167
2697.458	1138
2700.999	1127
2704.536	1107
2708.071	1070
2711.602	1036
2715.13	1022
2718.656	1005
2722.178	976
2725.697	980
2729.214	961
2732.727	970
2736.237	948
2739.744	949
2743.249	954
2746.75	971
2750.248	994
2753.743	989
2757.236	998
2760.725	997
2764.211	1007
2767.695	1003
2771.175	1002
2774.652	1016
2778.127	993
2781.598	991
2785.067	989
2788.532	983
2791.995	978
2795.455	989
2798.911	989
2802.365	979
2805.816	990
2809.264	984
2812.709	983
2816.151	974
2819.59	978
2823.026	964
2826.46	981
2829.89	991
2833.318	983
2836.742	979
2840.164	1003
2843.583	991
2846.999	1016
2850.412	1023
2853.822	1038
2857.229	1059
2860.634	1074
2864.035	1095
2867.434	1111
2870.83	1146
2874.223	1156
2877.613	1184
2881	1178
2884.385	1182
2887.766	1204
2891.145	1194
2894.521	1210
2897.894	1188
2901.264	1194
2904.631	1195
2907.996	1204
2911.358	1212
2914.717	1222
2918.073	1216
2921.426	1240
2924.777	1268
2928.124	1287
2931.469	1300
2934.811	1349
2938.15	1347
2941.487	1356
2944.821	1377
2948.152	1360
2951.48	1350
2954.805	1335
2958.128	1330
2961.447	1327
2964.765	1317
2968.079	1313
2971.39	1316
2974.699	1373
2978.005	1370
2981.308	1401
2984.609	1420
2987.907	1452
2991.202	1489
2994.494	1507
2997.784	1535
3001.07	1566
3004.355	1594
3007.636	1606
3010.915	1632
3014.191	1657
3017.464	1639
3020.734	1657
3024.002	1682
3027.267	1693
3030.53	1714
3033.789	1717
3037.046	1755
3040.301	1778
3043.552	1811
3046.801	1850
3050.048	1902
3053.291	1949
3056.532	2009
3059.771	2046
3063.006	2090
3066.239	2194
3069.469	2242
3072.697	2294
3075.922	2355
3079.144	2417
3082.364	2464
3085.581	2528
3088.795	2591
3092.007	2631
3095.216	2702
3098.423	2733
3101.627	2789
3104.828	2862
3108.026	2929
3111.222	2997
3114.416	3073
3117.607	3129
3120.795	3229
3123.98	3296
3127.163	3375
3130.344	3430
3133.521	3499
3136.696	3630
3139.869	3654
3143.039	3729
3146.206	3800
3149.371	3819
3152.533	3877
3155.693	3894
3158.85	3882
3162.005	3952
3165.157	3957
3168.306	3972
3171.453	3972
3174.597	3960
3177.739	3988
3180.878	3971
3184.014	3993
3187.149	4005
3190.28	3992
3193.409	4001
3196.536	4039
3199.659	4017
3202.781	4044
3205.9	4031
3209.016	4030
3212.13	4007
3215.241	3999
3218.35	3922
3221.456	3905
3224.56	3889
3227.661	3814
3230.76	3777
3233.856	3744
3236.95	3698
3240.041	3702
3243.13	3667
3246.216	3640
3249.3	3596
3252.382	3556
3255.46	3574
3258.537	3558
3261.611	3564
3264.682	3561
3267.751	3557
3270.818	3540
3273.882	3544
3276.943	3490
3280.002	3487
3283.059	3437
3286.113	3399
3289.165	3385
3292.214	3314
3295.261	3269
3298.306	3200
3301.348	3173
3304.387	3109
3307.425	3044
3310.459	3003
3313.492	2965
3316.521	2933
3319.549	2919
3322.574	2837
3325.597	2853
3328.617	2818
3331.635	2807
3334.65	2788
3337.663	2785
3340.674	2764
3343.682	2763
3346.688	2748
3349.691	2696
3352.692	2705
3355.691	2690
3358.687	2691
3361.681	2630
3364.673	2621
3367.662	2570
3370.649	2534
3373.633	2497
3376.615	2461
3379.595	2436
3382.572	2381
3385.547	2361
3388.52	2322
3391.49	2266
3394.458	2248
3397.424	2241
3400.387	2195
3403.348	2144
3406.307	2123
3409.263	2122
3412.217	2092
3415.168	2078
3418.118	2052
3421.065	1988
3424.009	1988
3426.951	1959
3429.891	1894
3432.829	1866
3435.764	1823
3438.697	1778
3441.628	1746
3444.557	1697
3447.483	1613
3450.407	1576
3453.328	1523
3456.247	1476
3459.164	1427
3462.079	1367
3464.991	1297
3467.902	1259
3470.809	1229
3473.715	1169
3476.618	1145
3479.519	1096
3482.418	1057
3485.315	1035
3488.209	986
3491.101	955
3493.99	906
3496.878	876
3499.763	849
3502.646	807
3505.527	768
3508.405	721
3511.281	695
3514.155	657
3517.027	598
3519.897	565
3522.764	531
3525.629	479
3528.492	443
3531.352	407
3534.211	366
3537.067	342
3539.921	311
3542.773	268
3545.622	233
3548.469	209
3551.315	185
3554.157	142
3556.998	118
3559.837	101
3562.673	63
3565.507	54
3568.339	42
3571.169	1
3573.996	-6
3576.822	-23
3579.645	-54
3582.466	-69
3585.285	-98
3588.101	-103
3590.916	-123
3593.728	-152
3596.538	-158
3599.346	-175
3602.152	-188
3604.956	-221
3607.757	-226
3610.556	-239
3613.354	-261
3616.149	-274
3618.942	-280
3621.732	-291
3624.521	-292
3627.307	-315
3630.092	-319
3632.874	-339
3635.654	-343
3638.432	-349
3641.208	-367
3643.982	-376
3646.753	-373
3649.523	-387
3652.29	-396
3655.055	-411
3657.818	-418
3660.579	-425
3663.338	-425
3666.095	-437
3668.849	-454
3671.602	-455
3674.352	-466
3677.101	-474
3679.847	-488
3682.591	-487
3685.333	-492
3688.073	-499
3690.811	-502
3693.547	-511
3696.281	-521
3699.013	-515
3701.742	-529
3704.47	-535
3707.195	-543
3709.919	-544
3712.64	-543
3715.359	-550
3718.076	-548
3720.792	-550
3723.505	-559
3726.216	-557
3728.925	-562
3731.632	-572
3734.336	-570
3737.039	-582
3739.74	-580
3742.439	-573
3745.136	-582
3747.83	-585
3750.523	-584
3753.213	-596
3755.902	-578
3758.589	-582
3761.273	-582
3763.956	-594
3766.636	-591
3769.315	-594
3771.991	-600
3774.665	-603
3777.338	-603
3780.008	-607
3782.677	-609
3785.343	-612
3788.007	-600
3790.67	-611
3793.33	-610
3795.989	-614
3798.645	-614
3801.299	-618
3803.952	-619
3806.602	-618
3809.251	-617
3811.897	-611
3814.542	-610
3817.184	-618
3819.825	-619
3822.463	-617
3825.1	-625
3827.735	-627
3830.367	-626
3832.998	-625
3835.627	-632
3838.253	-630
3840.878	-604
3843.501	-602
3846.122	-620
3848.741	-622
3851.358	-628
3853.973	-629
3856.586	-627
3859.197	-634
3861.806	-632
3864.414	-622
3867.019	-625
3869.622	-632
3872.224	-626
3874.823	-615
3877.421	-596
3880.016	-587
3882.61	-555
3885.202	-559
3887.792	-581
3890.38	-602
3892.966	-618
3895.55	-624
3898.132	-629
3900.713	-638
3903.291	-635
3905.868	-646
3908.442	-639
3911.015	-641
3913.586	-645
3916.155	-639
3918.722	-639
3921.287	-640
3923.85	-643
3926.411	-641
3928.971	-647
3931.528	-639
3934.084	-640
3936.638	-642
3939.19	-643
3941.74	-647
3944.288	-646
3946.834	-645
3949.378	-644
3951.921	-647
3954.462	-647
3957	-640
3959.537	-641
3962.072	-639
3964.606	-639
3967.137	-643
3969.667	-647
3972.194	-636
3974.72	-641
3977.244	-636
3979.766	-631
3982.286	-632
3984.805	-622
3987.321	-629
3989.836	-631
3992.349	-633
3994.86	-627
3997.369	-639
3999.877	-630
4002.382	-627
4004.886	-630
4007.388	-634
4009.888	-630
4012.386	-627
4014.883	-624
4017.377	-632
4019.87	-629
4022.361	-631
4024.85	-630
4027.338	-635
4029.823	-637
4032.307	-635
4034.789	-638
4037.269	-644
4039.747	-640
4042.224	-627
4044.699	-635
4047.172	-637
4049.643	-633
4052.112	-633
4054.58	-633
4057.046	-637
4059.51	-635
4061.972	-638
4064.432	-633
4066.891	-630
4069.348	-640
4071.803	-638
4074.256	-630
4076.708	-634
4079.158	-633
4081.606	-629
4084.052	-633
4086.497	-629
4088.939	-630
4091.38	-625
4093.819	-630
4096.257	-665
4098.693	-667
4101.127	-666
4103.559	-668
4105.989	-395
4108.418	-378
4110.845	-366
4113.27	-332
4115.694	-281
4118.115	-244
4120.535	-637
4122.954	-636
4125.37	-634
4127.785	-631
4130.198	-637
4132.609	-627
4135.019	-668
4137.427	-670
4139.833	-667
4142.237	-664
