Data from 2018-2-7_conc=4_RamanShift_29.txt Node
Date: Tue Feb 13 13:49:43 IST 2018
User: aro
Spectrometer: QEPB0276
Trigger mode: 0
Integration Time (sec): 3.000000E1
Scans to average: 1
Electric dark correction enabled: true
Nonlinearity correction enabled: false
Boxcar width: 0
XAxis mode: Raman Shifts
Number of Pixels in Spectrum: 1044
>>>>>Begin Spectral Data<<<<<
160.701	-169
166.742	21
172.777	587
178.805	2310
184.826	6267
190.841	12870
196.849	20350
202.85	25515
208.845	26983
214.833	26695
220.815	26180
226.789	25966
232.758	25811
238.719	25575
244.674	25139
250.623	24719
256.565	24101
262.5	23515
268.429	23084
274.351	22692
280.267	22375
286.176	22061
292.079	21893
297.975	21573
303.865	21446
309.748	21316
315.625	21168
321.495	20927
327.359	20924
333.217	20867
339.068	20821
344.912	20857
350.751	20734
356.583	20742
362.408	20718
368.227	20703
374.04	20725
379.847	20868
385.647	20887
391.44	20982
397.228	21039
403.009	21160
408.784	21168
414.553	21272
420.315	21349
426.071	21392
431.821	21372
437.565	21328
443.302	21266
449.033	21237
454.758	21210
460.477	21149
466.189	21152
471.896	21064
477.596	21011
483.29	20934
488.978	20938
494.66	20774
500.335	20710
506.005	20489
511.668	20193
517.325	19967
522.977	19717
528.622	19647
534.261	19417
539.894	19370
545.521	19300
551.141	19206
556.756	19139
562.365	19079
567.968	19075
573.565	18894
579.155	18835
584.74	18797
590.319	18718
595.892	18621
601.459	18554
607.02	18479
612.575	18368
618.124	18269
623.667	18163
629.204	18023
634.735	17987
640.261	17889
645.781	17798
651.294	17839
656.802	17777
662.304	17760
667.8	17691
673.29	17691
678.775	17625
684.254	17543
689.726	17500
695.193	17465
700.655	17434
706.11	17304
711.56	17249
717.004	17071
722.442	17013
727.874	16989
733.301	16911
738.722	16883
744.137	16784
749.547	16851
754.951	16817
760.349	16835
765.741	16874
771.128	16876
776.509	16915
781.885	16884
787.254	16790
792.618	16792
797.977	16631
803.33	16516
808.677	16464
814.019	16382
819.355	16267
824.686	16173
830.011	16173
835.33	16141
840.644	16154
845.952	16184
851.255	16270
856.552	16251
861.844	16201
867.13	16186
872.41	16054
877.686	15979
882.955	15906
888.219	15744
893.478	15574
898.731	15368
903.979	15217
909.221	15119
914.458	15049
919.69	15000
924.916	15093
930.136	15115
935.351	15147
940.561	15162
945.766	15096
950.965	15054
956.158	14907
961.347	14770
966.529	14593
971.707	14415
976.879	14207
982.046	14100
987.208	14045
992.364	14068
997.515	14132
1002.66	14331
1007.801	14506
1012.936	14636
1018.066	14555
1023.19	14570
1028.309	14543
1033.423	14522
1038.532	14411
1043.636	14294
1048.734	14114
1053.827	13953
1058.915	13769
1063.998	13700
1069.075	13677
1074.147	13695
1079.214	13740
1084.276	13831
1089.333	13940
1094.385	13978
1099.431	14039
1104.472	14013
1109.509	13954
1114.54	13770
1119.565	13529
1124.586	13414
1129.602	13272
1134.613	13227
1139.618	13113
1144.619	13098
1149.614	13126
1154.604	13150
1159.589	13176
1164.57	13153
1169.545	13162
1174.515	13173
1179.48	13126
1184.44	13034
1189.395	12957
1194.345	12842
1199.29	12766
1204.23	12786
1209.165	12824
1214.095	12910
1219.021	13004
1223.941	13072
1228.856	13093
1233.766	13151
1238.672	13188
1243.572	13179
1248.467	13056
1253.358	12907
1258.244	12747
1263.124	12507
1268	12356
1272.871	12235
1277.737	12092
1282.599	12052
1287.455	12047
1292.306	12064
1297.153	12129
1301.995	12195
1306.832	12193
1311.664	12208
1316.491	12139
1321.314	12030
1326.132	11840
1330.945	11617
1335.753	11391
1340.556	11116
1345.354	10910
1350.148	10769
1354.937	10676
1359.722	10630
1364.501	10658
1369.276	10736
1374.046	10916
1378.811	10999
1383.572	11088
1388.327	11092
1393.079	11090
1397.825	10938
1402.567	10779
1407.304	10725
1412.036	10596
1416.764	10539
1421.487	10438
1426.205	10434
1430.919	10390
1435.628	10403
1440.333	10431
1445.032	10437
1449.727	10492
1454.418	10493
1459.104	10372
1463.785	10201
1468.462	10004
1473.134	9775
1477.802	9560
1482.465	9429
1487.123	9304
1491.777	9280
1496.426	9312
1501.071	9396
1505.711	9526
1510.347	9670
1514.978	9820
1519.604	9960
1524.226	10038
1528.844	10043
1533.457	9984
1538.065	9974
1542.669	9903
1547.269	9847
1551.864	9777
1556.454	9797
1561.041	9806
1565.622	9749
1570.199	9808
1574.772	9861
1579.34	9891
1583.904	9966
1588.464	10049
1593.019	10044
1597.569	9998
1602.115	9944
1606.657	9908
1611.195	9872
1615.728	9839
1620.256	9737
1624.78	9784
1629.3	9805
1633.816	9831
1638.327	9926
1642.834	9976
1647.336	9996
1651.834	10005
1656.328	9958
1660.817	9961
1665.302	9836
1669.783	9633
1674.259	9374
1678.732	9142
1683.199	8819
1687.663	8521
1692.122	8269
1696.577	8114
1701.028	8080
1705.474	8128
1709.917	8155
1714.355	8161
1718.788	8109
1723.218	7987
1727.643	7841
1732.064	7696
1736.481	7536
1740.893	7334
1745.301	7183
1749.705	6934
1754.105	6759
1758.501	6594
1762.893	6409
1767.28	6251
1771.663	6132
1776.042	6031
1780.417	5977
1784.787	5969
1789.154	6033
1793.516	6142
1797.874	6194
1802.228	6281
1806.578	6339
1810.924	6345
1815.266	6287
1819.603	6241
1823.937	6137
1828.266	6009
1832.591	5930
1836.913	5845
1841.23	5795
1845.543	5782
1849.852	5744
1854.156	5704
1858.457	5693
1862.754	5712
1867.047	5719
1871.335	5703
1875.62	5684
1879.9	5670
1884.177	5607
1888.449	5573
1892.718	5527
1896.982	5478
1901.243	5443
1905.499	5392
1909.752	5370
1914	5387
1918.245	5384
1922.485	5425
1926.722	5475
1930.954	5505
1935.183	5561
1939.408	5588
1943.628	5634
1947.845	5681
1952.058	5649
1956.267	5587
1960.472	5507
1964.673	5452
1968.87	5366
1973.063	5270
1977.252	5191
1981.438	5121
1985.619	5100
1989.797	5046
1993.971	5028
1998.14	5039
2002.306	4983
2006.469	4974
2010.627	4928
2014.781	4942
2018.932	4873
2023.078	4856
2027.221	4798
2031.36	4723
2035.495	4629
2039.627	4576
2043.754	4550
2047.878	4513
2051.998	4433
2056.114	4474
2060.226	4478
2064.334	4485
2068.439	4471
2072.54	4505
2076.637	4518
2080.73	4530
2084.82	4584
2088.906	4571
2092.988	4579
2097.066	4559
2101.14	4520
2105.211	4482
2109.278	4447
2113.342	4436
2117.401	4408
2121.457	4371
2125.509	4362
2129.558	4329
2133.602	4324
2137.643	4314
2141.681	4276
2145.714	4255
2149.744	4221
2153.77	4175
2157.793	4135
2161.812	4104
2165.827	4030
2169.838	3980
2173.846	3895
2177.851	3817
2181.851	3807
2185.848	3751
2189.841	3723
2193.831	3660
2197.817	3652
2201.799	3605
2205.778	3602
2209.753	3587
2213.725	3599
2217.693	3574
2221.657	3565
2225.618	3521
2229.575	3505
2233.529	3489
2237.479	3455
2241.425	3455
2245.368	3374
2249.307	3321
2253.243	3270
2257.175	3257
2261.104	3182
2265.029	3158
2268.95	3116
2272.868	3096
2276.783	3047
2280.694	3019
2284.601	2978
2288.505	2973
2292.405	2930
2296.302	2910
2300.195	2875
2304.085	2859
2307.971	2796
2311.854	2764
2315.734	2726
2319.609	2670
2323.482	2637
2327.351	2621
2331.216	2599
2335.078	2578
2338.937	2571
2342.792	2561
2346.643	2524
2350.492	2538
2354.336	2541
2358.178	2514
2362.015	2578
2365.85	2563
2369.681	2574
2373.508	2579
2377.333	2580
2381.153	2544
2384.971	2553
2388.785	2527
2392.595	2498
2396.402	2459
2400.206	2444
2404.007	2411
2407.804	2421
2411.597	2403
2415.388	2394
2419.174	2371
2422.958	2344
2426.738	2362
2430.515	2326
2434.289	2307
2438.059	2291
2441.825	2284
2445.589	2253
2449.349	2225
2453.106	2193
2456.859	2148
2460.61	2131
2464.356	2123
2468.1	2101
2471.84	2069
2475.577	2043
2479.311	2015
2483.041	2028
2486.768	1997
2490.492	2025
2494.213	1984
2497.93	1991
2501.644	1973
2505.355	1958
2509.062	1973
2512.766	1958
2516.467	1930
2520.165	1916
2523.859	1912
2527.551	1916
2531.239	1895
2534.923	1883
2538.605	1867
2542.283	1851
2545.958	1866
2549.63	1843
2553.299	1862
2556.964	1821
2560.626	1825
2564.285	1826
2567.941	1823
2571.594	1800
2575.243	1801
2578.89	1790
2582.533	1762
2586.173	1749
2589.809	1717
2593.443	1715
2597.073	1683
2600.701	1683
2604.325	1667
2607.946	1654
2611.564	1660
2615.178	1641
2618.79	1611
2622.398	1621
2626.004	1592
2629.606	1575
2633.205	1563
2636.801	1536
2640.394	1509
2643.983	1480
2647.57	1477
2651.153	1457
2654.734	1424
2658.311	1408
2661.885	1374
2665.456	1356
2669.025	1342
2672.589	1354
2676.151	1319
2679.71	1296
2683.266	1289
2686.819	1243
2690.368	1237
2693.915	1222
2697.458	1177
2700.999	1137
2704.536	1134
2708.071	1109
2711.602	1094
2715.13	1073
2718.656	1046
2722.178	1025
2725.697	1011
2729.214	997
2732.727	1001
2736.237	988
2739.744	1001
2743.249	988
2746.75	987
2750.248	1007
2753.743	1011
2757.236	1022
2760.725	1012
2764.211	1041
2767.695	1008
2771.175	1043
2774.652	1020
2778.127	1029
2781.598	1013
2785.067	1024
2788.532	1012
2791.995	1006
2795.455	1004
2798.911	1003
2802.365	997
2805.816	997
2809.264	1011
2812.709	994
2816.151	1008
2819.59	1011
2823.026	988
2826.46	1012
2829.89	1011
2833.318	1002
2836.742	1002
2840.164	1032
2843.583	1050
2846.999	1041
2850.412	1036
2853.822	1062
2857.229	1066
2860.634	1108
2864.035	1121
2867.434	1110
2870.83	1169
2874.223	1193
2877.613	1217
2881	1223
2884.385	1230
2887.766	1227
2891.145	1223
2894.521	1227
2897.894	1215
2901.264	1222
2904.631	1225
2907.996	1250
2911.358	1245
2914.717	1242
2918.073	1252
2921.426	1277
2924.777	1296
2928.124	1308
2931.469	1344
2934.811	1367
2938.15	1396
2941.487	1402
2944.821	1394
2948.152	1405
2951.48	1400
2954.805	1373
2958.128	1365
2961.447	1359
2964.765	1339
2968.079	1361
2971.39	1361
2974.699	1393
2978.005	1418
2981.308	1429
2984.609	1448
2987.907	1453
2991.202	1517
2994.494	1545
2997.784	1568
3001.07	1578
3004.355	1604
3007.636	1641
3010.915	1640
3014.191	1673
3017.464	1678
3020.734	1671
3024.002	1708
3027.267	1723
3030.53	1759
3033.789	1768
3037.046	1776
3040.301	1803
3043.552	1851
3046.801	1907
3050.048	1918
3053.291	1991
3056.532	2033
3059.771	2084
3063.006	2162
3066.239	2232
3069.469	2303
3072.697	2362
3075.922	2396
3079.144	2462
3082.364	2528
3085.581	2584
3088.795	2621
3092.007	2684
3095.216	2739
3098.423	2784
3101.627	2860
3104.828	2915
3108.026	2990
3111.222	3055
3114.416	3145
3117.607	3211
3120.795	3266
3123.98	3363
3127.163	3433
3130.344	3528
3133.521	3593
3136.696	3661
3139.869	3723
3143.039	3799
3146.206	3867
3149.371	3907
3152.533	3950
3155.693	3957
3158.85	4002
3162.005	4041
3165.157	4034
3168.306	4057
3171.453	4067
3174.597	4091
3177.739	4082
3180.878	4061
3184.014	4115
3187.149	4108
3190.28	4131
3193.409	4120
3196.536	4122
3199.659	4110
3202.781	4115
3205.9	4097
3209.016	4121
3212.13	4086
3215.241	4075
3218.35	4037
3221.456	3976
3224.56	3942
3227.661	3867
3230.76	3861
3233.856	3815
3236.95	3783
3240.041	3755
3243.13	3719
3246.216	3699
3249.3	3698
3252.382	3640
3255.46	3630
3258.537	3639
3261.611	3635
3264.682	3640
3267.751	3651
3270.818	3636
3273.882	3621
3276.943	3593
3280.002	3561
3283.059	3523
3286.113	3495
3289.165	3489
3292.214	3417
3295.261	3353
3298.306	3310
3301.348	3247
3304.387	3182
3307.425	3144
3310.459	3106
3313.492	3072
3316.521	3001
3319.549	2982
3322.574	2967
3325.597	2907
3328.617	2901
3331.635	2891
3334.65	2890
3337.663	2833
3340.674	2843
3343.682	2835
3346.688	2811
3349.691	2807
3352.692	2787
3355.691	2769
3358.687	2775
3361.681	2713
3364.673	2686
3367.662	2636
3370.649	2613
3373.633	2581
3376.615	2525
3379.595	2492
3382.572	2460
3385.547	2412
3388.52	2393
3391.49	2340
3394.458	2304
3397.424	2282
3400.387	2243
3403.348	2217
3406.307	2193
3409.263	2180
3412.217	2138
3415.168	2117
3418.118	2097
3421.065	2052
3424.009	2032
3426.951	2017
3429.891	1958
3432.829	1926
3435.764	1884
3438.697	1849
3441.628	1792
3444.557	1731
3447.483	1679
3450.407	1610
3453.328	1547
3456.247	1523
3459.164	1474
3462.079	1394
3464.991	1377
3467.902	1284
3470.809	1268
3473.715	1203
3476.618	1168
3479.519	1117
3482.418	1090
3485.315	1046
3488.209	992
3491.101	982
3493.99	950
3496.878	901
3499.763	853
3502.646	846
3505.527	781
3508.405	748
3511.281	720
3514.155	668
3517.027	631
3519.897	581
3522.764	524
3525.629	502
3528.492	468
3531.352	417
3534.211	380
3537.067	348
3539.921	291
3542.773	285
3545.622	240
3548.469	217
3551.315	185
3554.157	158
3556.998	127
3559.837	107
3562.673	96
3565.507	70
3568.339	32
3571.169	8
3573.996	3
3576.822	-33
3579.645	-55
3582.466	-70
3585.285	-94
3588.101	-98
3590.916	-135
3593.728	-144
3596.538	-180
3599.346	-188
3602.152	-206
3604.956	-225
3607.757	-246
3610.556	-247
3613.354	-274
3616.149	-274
3618.942	-286
3621.732	-302
3624.521	-311
3627.307	-327
3630.092	-331
3632.874	-342
3635.654	-364
3638.432	-364
3641.208	-373
3643.982	-383
3646.753	-392
3649.523	-405
3652.29	-413
3655.055	-421
3657.818	-429
3660.579	-439
3663.338	-444
3666.095	-459
3668.849	-474
3671.602	-485
3674.352	-489
3677.101	-491
3679.847	-502
3682.591	-506
3685.333	-511
3688.073	-514
3690.811	-525
3693.547	-531
3696.281	-537
3699.013	-540
3701.742	-545
3704.47	-549
3707.195	-557
3709.919	-551
3712.64	-559
3715.359	-568
3718.076	-562
3720.792	-575
3723.505	-574
3726.216	-582
3728.925	-584
3731.632	-599
3734.336	-593
3737.039	-604
3739.74	-599
3742.439	-596
3745.136	-602
3747.83	-603
3750.523	-601
3753.213	-612
3755.902	-611
3758.589	-605
3761.273	-611
3763.956	-613
3766.636	-617
3769.315	-611
3771.991	-620
3774.665	-613
3777.338	-619
3780.008	-621
3782.677	-620
3785.343	-623
3788.007	-621
3790.67	-626
3793.33	-636
3795.989	-633
3798.645	-633
3801.299	-639
3803.952	-641
3806.602	-629
3809.251	-643
3811.897	-635
3814.542	-637
3817.184	-644
3819.825	-640
3822.463	-637
3825.1	-646
3827.735	-648
3830.367	-647
3832.998	-649
3835.627	-650
3838.253	-652
3840.878	-648
3843.501	-648
3846.122	-648
3848.741	-649
3851.358	-652
3853.973	-650
3856.586	-650
3859.197	-648
3861.806	-654
3864.414	-643
3867.019	-645
3869.622	-651
3872.224	-649
3874.823	-627
3877.421	-614
3880.016	-591
3882.61	-560
3885.202	-554
3887.792	-587
3890.38	-619
3892.966	-639
3895.55	-642
3898.132	-652
3900.713	-661
3903.291	-660
3905.868	-662
3908.442	-662
3911.015	-661
3913.586	-654
3916.155	-657
3918.722	-657
3921.287	-660
3923.85	-661
3926.411	-664
3928.971	-667
3931.528	-668
3934.084	-657
3936.638	-661
3939.19	-665
3941.74	-667
3944.288	-667
3946.834	-669
3949.378	-675
3951.921	-671
3954.462	-663
3957	-667
3959.537	-661
3962.072	-663
3964.606	-659
3967.137	-668
3969.667	-658
3972.194	-659
3974.72	-656
3977.244	-653
3979.766	-652
3982.286	-656
3984.805	-652
3987.321	-653
3989.836	-654
3992.349	-650
3994.86	-648
3997.369	-662
3999.877	-645
4002.382	-648
4004.886	-653
4007.388	-652
4009.888	-653
4012.386	-657
4014.883	-648
4017.377	-652
4019.87	-653
4022.361	-650
4024.85	-655
4027.338	-654
4029.823	-648
4032.307	-655
4034.789	-654
4037.269	-660
4039.747	-653
4042.224	-653
4044.699	-651
4047.172	-656
4049.643	-654
4052.112	-656
4054.58	-651
4057.046	-661
4059.51	-658
4061.972	-660
4064.432	-663
4066.891	-657
4069.348	-662
4071.803	-656
4074.256	-655
4076.708	-658
4079.158	-652
4081.606	-649
4084.052	-653
4086.497	-657
4088.939	-650
4091.38	-646
4093.819	-657
4096.257	-686
4098.693	-687
4101.127	-686
4103.559	-685
4105.989	-417
4108.418	-395
4110.845	-375
4113.27	-349
4115.694	-296
4118.115	-246
4120.535	-655
4122.954	-657
4125.37	-650
4127.785	-653
4130.198	-656
4132.609	-651
4135.019	-689
4137.427	-690
4139.833	-685
4142.237	-685
