Data from 2018-2-7_conc=02_RamanShift_04.txt Node
Date: Tue Feb 13 11:26:14 IST 2018
User: aro
Spectrometer: QEPB0276
Trigger mode: 0
Integration Time (sec): 3.000000E1
Scans to average: 1
Electric dark correction enabled: true
Nonlinearity correction enabled: false
Boxcar width: 0
XAxis mode: Raman Shifts
Number of Pixels in Spectrum: 1044
>>>>>Begin Spectral Data<<<<<
160.701	-158
166.742	23
172.777	574
178.805	2213
184.826	6049
190.841	12451
196.849	19675
202.85	24550
208.845	26102
214.833	25738
220.815	25249
226.789	25021
232.758	24848
238.719	24646
244.674	24259
250.623	23761
256.565	23225
262.5	22668
268.429	22228
274.351	21780
280.267	21470
286.176	21158
292.079	20921
297.975	20642
303.865	20494
309.748	20355
315.625	20118
321.495	20039
327.359	19937
333.217	19849
339.068	19832
344.912	19868
350.751	19759
356.583	19775
362.408	19749
368.227	19726
374.04	19809
379.847	19861
385.647	19959
391.44	20006
397.228	20033
403.009	20119
408.784	20211
414.553	20290
420.315	20324
426.071	20312
431.821	20364
437.565	20280
443.302	20222
449.033	20245
454.758	20211
460.477	20136
466.189	20092
471.896	19995
477.596	19927
483.29	19879
488.978	19918
494.66	19837
500.335	19686
506.005	19481
511.668	19222
517.325	19001
522.977	18838
528.622	18727
534.261	18553
539.894	18436
545.521	18376
551.141	18352
556.756	18308
562.365	18218
567.968	18159
573.565	18041
579.155	18012
584.74	17922
590.319	17792
595.892	17773
601.459	17699
607.02	17571
612.575	17543
618.124	17410
623.667	17237
629.204	17243
634.735	17169
640.261	17050
645.781	16984
651.294	17012
656.802	16938
662.304	16884
667.8	16829
673.29	16886
678.775	16841
684.254	16787
689.726	16702
695.193	16638
700.655	16568
706.11	16519
711.56	16396
717.004	16331
722.442	16284
727.874	16171
733.301	16157
738.722	16084
744.137	16053
749.547	16027
754.951	16058
760.349	16111
765.741	16085
771.128	16078
776.509	16082
781.885	16076
787.254	16015
792.618	15942
797.977	15835
803.33	15766
808.677	15700
814.019	15580
819.355	15491
824.686	15458
830.011	15415
835.33	15367
840.644	15344
845.952	15442
851.255	15416
856.552	15444
861.844	15378
867.13	15374
872.41	15335
877.686	15267
882.955	15160
888.219	15020
893.478	14818
898.731	14675
903.979	14493
909.221	14400
914.458	14323
919.69	14336
924.916	14350
930.136	14452
935.351	14379
940.561	14368
945.766	14428
950.965	14316
956.158	14213
961.347	14065
966.529	13838
971.707	13693
976.879	13499
982.046	13466
987.208	13384
992.364	13401
997.515	13449
1002.66	13584
1007.801	13744
1012.936	13852
1018.066	13851
1023.19	13839
1028.309	13819
1033.423	13768
1038.532	13713
1043.636	13561
1048.734	13441
1053.827	13277
1058.915	13085
1063.998	13007
1069.075	12991
1074.147	12988
1079.214	13035
1084.276	13176
1089.333	13223
1094.385	13294
1099.431	13350
1104.472	13343
1109.509	13258
1114.54	13066
1119.565	12901
1124.586	12801
1129.602	12594
1134.613	12558
1139.618	12477
1144.619	12441
1149.614	12446
1154.604	12429
1159.589	12456
1164.57	12519
1169.545	12514
1174.515	12529
1179.48	12431
1184.44	12345
1189.395	12255
1194.345	12194
1199.29	12139
1204.23	12139
1209.165	12158
1214.095	12287
1219.021	12334
1223.941	12391
1228.856	12447
1233.766	12477
1238.672	12519
1243.572	12458
1248.467	12362
1253.358	12259
1258.244	12111
1263.124	11886
1268	11683
1272.871	11570
1277.737	11487
1282.599	11427
1287.455	11445
1292.306	11450
1297.153	11482
1301.995	11513
1306.832	11608
1311.664	11588
1316.491	11612
1321.314	11471
1326.132	11299
1330.945	11047
1335.753	10777
1340.556	10547
1345.354	10366
1350.148	10136
1354.937	10100
1359.722	10090
1364.501	10109
1369.276	10190
1374.046	10299
1378.811	10445
1383.572	10544
1388.327	10522
1393.079	10562
1397.825	10417
1402.567	10273
1407.304	10182
1412.036	10118
1416.764	10019
1421.487	9931
1426.205	9880
1430.919	9883
1435.628	9826
1440.333	9864
1445.032	9918
1449.727	9975
1454.418	9911
1459.104	9819
1463.785	9609
1468.462	9461
1473.134	9196
1477.802	9012
1482.465	8854
1487.123	8781
1491.777	8735
1496.426	8768
1501.071	8863
1505.711	9014
1510.347	9169
1514.978	9280
1519.604	9413
1524.226	9522
1528.844	9526
1533.457	9517
1538.065	9462
1542.669	9409
1547.269	9313
1551.864	9311
1556.454	9289
1561.041	9323
1565.622	9271
1570.199	9269
1574.772	9350
1579.34	9414
1583.904	9503
1588.464	9519
1593.019	9530
1597.569	9482
1602.115	9432
1606.657	9405
1611.195	9380
1615.728	9320
1620.256	9258
1624.78	9284
1629.3	9296
1633.816	9345
1638.327	9404
1642.834	9455
1647.336	9479
1651.834	9516
1656.328	9497
1660.817	9400
1665.302	9307
1669.783	9124
1674.259	8940
1678.732	8626
1683.199	8360
1687.663	8035
1692.122	7843
1696.577	7666
1701.028	7608
1705.474	7647
1709.917	7732
1714.355	7716
1718.788	7628
1723.218	7550
1727.643	7428
1732.064	7233
1736.481	7074
1740.893	6888
1745.301	6734
1749.705	6516
1754.105	6357
1758.501	6208
1762.893	5982
1767.28	5870
1771.663	5744
1776.042	5667
1780.417	5579
1784.787	5623
1789.154	5646
1793.516	5707
1797.874	5829
1802.228	5920
1806.578	5957
1810.924	6003
1815.266	5925
1819.603	5838
1823.937	5737
1828.266	5643
1832.591	5528
1836.913	5505
1841.23	5432
1845.543	5483
1849.852	5401
1854.156	5378
1858.457	5356
1862.754	5325
1867.047	5346
1871.335	5354
1875.62	5320
1879.9	5352
1884.177	5294
1888.449	5223
1892.718	5170
1896.982	5132
1901.243	5078
1905.499	5021
1909.752	5015
1914	5020
1918.245	5032
1922.485	5024
1926.722	5110
1930.954	5172
1935.183	5214
1939.408	5249
1943.628	5290
1947.845	5261
1952.058	5278
1956.267	5230
1960.472	5194
1964.673	5090
1968.87	5018
1973.063	4986
1977.252	4898
1981.438	4866
1985.619	4798
1989.797	4751
1993.971	4735
1998.14	4717
2002.306	4719
2006.469	4689
2010.627	4684
2014.781	4664
2018.932	4585
2023.078	4552
2027.221	4511
2031.36	4437
2035.495	4407
2039.627	4297
2043.754	4260
2047.878	4236
2051.998	4186
2056.114	4184
2060.226	4161
2064.334	4196
2068.439	4187
2072.54	4182
2076.637	4241
2080.73	4273
2084.82	4299
2088.906	4331
2092.988	4293
2097.066	4280
2101.14	4275
2105.211	4233
2109.278	4214
2113.342	4158
2117.401	4163
2121.457	4125
2125.509	4129
2129.558	4091
2133.602	4043
2137.643	4067
2141.681	4025
2145.714	4037
2149.744	3974
2153.77	3967
2157.793	3916
2161.812	3877
2165.827	3819
2169.838	3760
2173.846	3695
2177.851	3647
2181.851	3592
2185.848	3520
2189.841	3542
2193.831	3470
2197.817	3430
2201.799	3425
2205.778	3395
2209.753	3377
2213.725	3363
2217.693	3357
2221.657	3365
2225.618	3364
2229.575	3334
2233.529	3307
2237.479	3247
2241.425	3250
2245.368	3187
2249.307	3147
2253.243	3101
2257.175	3066
2261.104	3021
2265.029	2979
2268.95	2956
2272.868	2890
2276.783	2883
2280.694	2836
2284.601	2818
2288.505	2808
2292.405	2791
2296.302	2754
2300.195	2712
2304.085	2683
2307.971	2665
2311.854	2626
2315.734	2585
2319.609	2530
2323.482	2485
2327.351	2465
2331.216	2486
2335.078	2453
2338.937	2438
2342.792	2422
2346.643	2426
2350.492	2392
2354.336	2426
2358.178	2412
2362.015	2422
2365.85	2408
2369.681	2439
2373.508	2444
2377.333	2444
2381.153	2425
2384.971	2410
2388.785	2395
2392.595	2391
2396.402	2358
2400.206	2312
2404.007	2320
2407.804	2303
2411.597	2276
2415.388	2271
2419.174	2269
2422.958	2211
2426.738	2209
2430.515	2214
2434.289	2185
2438.059	2159
2441.825	2174
2445.589	2129
2449.349	2091
2453.106	2077
2456.859	2068
2460.61	2016
2464.356	2009
2468.1	1984
2471.84	1968
2475.577	1950
2479.311	1926
2483.041	1914
2486.768	1911
2490.492	1899
2494.213	1905
2497.93	1884
2501.644	1871
2505.355	1875
2509.062	1853
2512.766	1843
2516.467	1833
2520.165	1829
2523.859	1805
2527.551	1819
2531.239	1788
2534.923	1767
2538.605	1761
2542.283	1752
2545.958	1749
2549.63	1729
2553.299	1738
2556.964	1719
2560.626	1737
2564.285	1706
2567.941	1731
2571.594	1696
2575.243	1693
2578.89	1695
2582.533	1687
2586.173	1664
2589.809	1645
2593.443	1623
2597.073	1605
2600.701	1619
2604.325	1573
2607.946	1580
2611.564	1547
2615.178	1545
2618.79	1557
2622.398	1525
2626.004	1511
2629.606	1507
2633.205	1463
2636.801	1471
2640.394	1429
2643.983	1419
2647.57	1378
2651.153	1362
2654.734	1354
2658.311	1344
2661.885	1304
2665.456	1307
2669.025	1288
2672.589	1273
2676.151	1256
2679.71	1246
2683.266	1225
2686.819	1196
2690.368	1160
2693.915	1155
2697.458	1131
2700.999	1097
2704.536	1075
2708.071	1039
2711.602	1033
2715.13	1020
2718.656	976
2722.178	951
2725.697	945
2729.214	943
2732.727	931
2736.237	934
2739.744	927
2743.249	927
2746.75	940
2750.248	950
2753.743	953
2757.236	958
2760.725	965
2764.211	964
2767.695	986
2771.175	984
2774.652	971
2778.127	971
2781.598	951
2785.067	945
2788.532	948
2791.995	971
2795.455	952
2798.911	949
2802.365	957
2805.816	963
2809.264	951
2812.709	953
2816.151	958
2819.59	958
2823.026	957
2826.46	957
2829.89	962
2833.318	965
2836.742	974
2840.164	981
2843.583	985
2846.999	1004
2850.412	990
2853.822	1036
2857.229	1025
2860.634	1052
2864.035	1059
2867.434	1084
2870.83	1121
2874.223	1136
2877.613	1168
2881	1179
2884.385	1194
2887.766	1182
2891.145	1183
2894.521	1184
2897.894	1185
2901.264	1201
2904.631	1184
2907.996	1206
2911.358	1210
2914.717	1213
2918.073	1232
2921.426	1250
2924.777	1274
2928.124	1271
2931.469	1297
2934.811	1356
2938.15	1351
2941.487	1331
2944.821	1372
2948.152	1366
2951.48	1373
2954.805	1350
2958.128	1332
2961.447	1324
2964.765	1338
2968.079	1327
2971.39	1344
2974.699	1367
2978.005	1380
2981.308	1395
2984.609	1410
2987.907	1466
2991.202	1476
2994.494	1512
2997.784	1538
3001.07	1568
3004.355	1571
3007.636	1608
3010.915	1625
3014.191	1664
3017.464	1682
3020.734	1678
3024.002	1691
3027.267	1722
3030.53	1726
3033.789	1756
3037.046	1762
3040.301	1778
3043.552	1837
3046.801	1867
3050.048	1916
3053.291	1982
3056.532	2023
3059.771	2079
3063.006	2143
3066.239	2210
3069.469	2264
3072.697	2337
3075.922	2393
3079.144	2449
3082.364	2500
3085.581	2582
3088.795	2599
3092.007	2659
3095.216	2729
3098.423	2768
3101.627	2851
3104.828	2923
3108.026	2966
3111.222	3037
3114.416	3118
3117.607	3164
3120.795	3270
3123.98	3333
3127.163	3393
3130.344	3475
3133.521	3565
3136.696	3651
3139.869	3719
3143.039	3822
3146.206	3851
3149.371	3931
3152.533	3953
3155.693	3949
3158.85	3991
3162.005	4004
3165.157	4020
3168.306	4005
3171.453	4030
3174.597	4063
3177.739	4072
3180.878	4068
3184.014	4059
3187.149	4066
3190.28	4067
3193.409	4089
3196.536	4100
3199.659	4116
3202.781	4100
3205.9	4088
3209.016	4097
3212.13	4092
3215.241	4046
3218.35	4052
3221.456	3999
3224.56	3927
3227.661	3894
3230.76	3836
3233.856	3828
3236.95	3778
3240.041	3730
3243.13	3723
3246.216	3701
3249.3	3686
3252.382	3657
3255.46	3637
3258.537	3625
3261.611	3617
3264.682	3644
3267.751	3632
3270.818	3601
3273.882	3617
3276.943	3579
3280.002	3550
3283.059	3526
3286.113	3480
3289.165	3432
3292.214	3386
3295.261	3336
3298.306	3297
3301.348	3231
3304.387	3128
3307.425	3122
3310.459	3071
3313.492	3035
3316.521	2966
3319.549	2950
3322.574	2925
3325.597	2901
3328.617	2887
3331.635	2851
3334.65	2845
3337.663	2847
3340.674	2818
3343.682	2822
3346.688	2803
3349.691	2805
3352.692	2783
3355.691	2743
3358.687	2715
3361.681	2703
3364.673	2671
3367.662	2631
3370.649	2593
3373.633	2582
3376.615	2493
3379.595	2480
3382.572	2453
3385.547	2395
3388.52	2375
3391.49	2320
3394.458	2287
3397.424	2265
3400.387	2249
3403.348	2216
3406.307	2185
3409.263	2182
3412.217	2138
3415.168	2113
3418.118	2107
3421.065	2043
3424.009	2026
3426.951	1991
3429.891	1947
3432.829	1905
3435.764	1878
3438.697	1818
3441.628	1766
3444.557	1722
3447.483	1672
3450.407	1624
3453.328	1593
3456.247	1495
3459.164	1464
3462.079	1402
3464.991	1345
3467.902	1305
3470.809	1252
3473.715	1220
3476.618	1170
3479.519	1133
3482.418	1101
3485.315	1047
3488.209	1014
3491.101	984
3493.99	947
3496.878	909
3499.763	878
3502.646	845
3505.527	791
3508.405	739
3511.281	720
3514.155	683
3517.027	628
3519.897	598
3522.764	556
3525.629	522
3528.492	479
3531.352	423
3534.211	396
3537.067	369
3539.921	325
3542.773	301
3545.622	250
3548.469	227
3551.315	207
3554.157	175
3556.998	150
3559.837	123
3562.673	87
3565.507	68
3568.339	50
3571.169	24
3573.996	8
3576.822	0
3579.645	-39
3582.466	-55
3585.285	-76
3588.101	-87
3590.916	-101
3593.728	-133
3596.538	-143
3599.346	-168
3602.152	-187
3604.956	-205
3607.757	-209
3610.556	-231
3613.354	-240
3616.149	-250
3618.942	-276
3621.732	-282
3624.521	-289
3627.307	-311
3630.092	-315
3632.874	-327
3635.654	-334
3638.432	-348
3641.208	-352
3643.982	-366
3646.753	-373
3649.523	-375
3652.29	-382
3655.055	-396
3657.818	-406
3660.579	-418
3663.338	-427
3666.095	-433
3668.849	-454
3671.602	-464
3674.352	-465
3677.101	-473
3679.847	-477
3682.591	-479
3685.333	-487
3688.073	-498
3690.811	-492
3693.547	-499
3696.281	-513
3699.013	-510
3701.742	-521
3704.47	-522
3707.195	-536
3709.919	-528
3712.64	-540
3715.359	-538
3718.076	-547
3720.792	-551
3723.505	-549
3726.216	-550
3728.925	-558
3731.632	-575
3734.336	-565
3737.039	-575
3739.74	-570
3742.439	-569
3745.136	-572
3747.83	-576
3750.523	-574
3753.213	-583
3755.902	-579
3758.589	-584
3761.273	-580
3763.956	-595
3766.636	-586
3769.315	-591
3771.991	-589
3774.665	-594
3777.338	-590
3780.008	-594
3782.677	-598
3785.343	-603
3788.007	-593
3790.67	-597
3793.33	-604
3795.989	-605
3798.645	-605
3801.299	-612
3803.952	-617
3806.602	-619
3809.251	-619
3811.897	-610
3814.542	-611
3817.184	-613
3819.825	-612
3822.463	-610
3825.1	-616
3827.735	-617
3830.367	-617
3832.998	-621
3835.627	-621
3838.253	-623
3840.878	-624
3843.501	-627
3846.122	-619
3848.741	-622
3851.358	-629
3853.973	-628
3856.586	-618
3859.197	-627
3861.806	-621
3864.414	-617
3867.019	-616
3869.622	-624
3872.224	-615
3874.823	-608
3877.421	-590
3880.016	-582
3882.61	-554
3885.202	-559
3887.792	-582
3890.38	-604
3892.966	-616
3895.55	-624
3898.132	-631
3900.713	-637
3903.291	-631
3905.868	-630
3908.442	-635
3911.015	-636
3913.586	-633
3916.155	-636
3918.722	-634
3921.287	-637
3923.85	-636
3926.411	-635
3928.971	-641
3931.528	-640
3934.084	-635
3936.638	-638
3939.19	-640
3941.74	-643
3944.288	-643
3946.834	-641
3949.378	-636
3951.921	-642
3954.462	-642
3957	-640
3959.537	-631
3962.072	-635
3964.606	-631
3967.137	-642
3969.667	-630
3972.194	-632
3974.72	-634
3977.244	-631
3979.766	-629
3982.286	-632
3984.805	-622
3987.321	-627
3989.836	-621
3992.349	-625
3994.86	-620
3997.369	-633
3999.877	-630
4002.382	-625
4004.886	-633
4007.388	-628
4009.888	-625
4012.386	-629
4014.883	-626
4017.377	-629
4019.87	-622
4022.361	-625
4024.85	-628
4027.338	-628
4029.823	-625
4032.307	-624
4034.789	-630
4037.269	-639
4039.747	-633
4042.224	-623
4044.699	-632
4047.172	-635
4049.643	-632
4052.112	-627
4054.58	-624
4057.046	-631
4059.51	-629
4061.972	-635
4064.432	-627
4066.891	-628
4069.348	-627
4071.803	-632
4074.256	-628
4076.708	-625
4079.158	-629
4081.606	-626
4084.052	-631
4086.497	-631
4088.939	-623
4091.38	-624
4093.819	-624
4096.257	-663
4098.693	-666
4101.127	-663
4103.559	-667
4105.989	-395
4108.418	-376
4110.845	-353
4113.27	-331
4115.694	-280
4118.115	-237
4120.535	-626
4122.954	-636
4125.37	-627
4127.785	-624
4130.198	-630
4132.609	-625
4135.019	-663
4137.427	-664
4139.833	-662
4142.237	-663
