Data from 2018-2-7_conc=2_RamanShift_22.txt Node
Date: Tue Feb 13 11:59:44 IST 2018
User: aro
Spectrometer: QEPB0276
Trigger mode: 0
Integration Time (sec): 3.000000E1
Scans to average: 1
Electric dark correction enabled: true
Nonlinearity correction enabled: false
Boxcar width: 0
XAxis mode: Raman Shifts
Number of Pixels in Spectrum: 1044
>>>>>Begin Spectral Data<<<<<
160.701	-149
166.742	28
172.777	561
178.805	2151
184.826	5927
190.841	12188
196.849	19280
202.85	24176
208.845	25725
214.833	25466
220.815	24957
226.789	24765
232.758	24673
238.719	24500
244.674	24088
250.623	23609
256.565	23098
262.5	22614
268.429	22174
274.351	21814
280.267	21464
286.176	21291
292.079	21066
297.975	20887
303.865	20683
309.748	20522
315.625	20348
321.495	20187
327.359	20159
333.217	20137
339.068	20094
344.912	20060
350.751	19988
356.583	20057
362.408	19982
368.227	19955
374.04	19951
379.847	20094
385.647	20129
391.44	20174
397.228	20297
403.009	20302
408.784	20422
414.553	20468
420.315	20542
426.071	20577
431.821	20561
437.565	20550
443.302	20469
449.033	20447
454.758	20385
460.477	20351
466.189	20334
471.896	20289
477.596	20203
483.29	20156
488.978	20103
494.66	20047
500.335	19960
506.005	19715
511.668	19469
517.325	19293
522.977	19142
528.622	18905
534.261	18852
539.894	18680
545.521	18661
551.141	18596
556.756	18543
562.365	18509
567.968	18441
573.565	18341
579.155	18256
584.74	18206
590.319	18173
595.892	18089
601.459	18009
607.02	17943
612.575	17775
618.124	17687
623.667	17592
629.204	17509
634.735	17386
640.261	17338
645.781	17352
651.294	17303
656.802	17269
662.304	17212
667.8	17207
673.29	17173
678.775	17155
684.254	17077
689.726	17019
695.193	16996
700.655	16844
706.11	16860
711.56	16733
717.004	16601
722.442	16642
727.874	16522
733.301	16451
738.722	16451
744.137	16434
749.547	16355
754.951	16425
760.349	16441
765.741	16402
771.128	16390
776.509	16429
781.885	16406
787.254	16398
792.618	16303
797.977	16239
803.33	16133
808.677	15965
814.019	15979
819.355	15845
824.686	15800
830.011	15766
835.33	15752
840.644	15768
845.952	15817
851.255	15874
856.552	15862
861.844	15811
867.13	15764
872.41	15758
877.686	15641
882.955	15539
888.219	15444
893.478	15175
898.731	15044
903.979	14882
909.221	14748
914.458	14722
919.69	14722
924.916	14791
930.136	14832
935.351	14808
940.561	14823
945.766	14814
950.965	14781
956.158	14691
961.347	14491
966.529	14309
971.707	14068
976.879	13984
982.046	13856
987.208	13814
992.364	13824
997.515	13996
1002.66	14119
1007.801	14235
1012.936	14294
1018.066	14280
1023.19	14287
1028.309	14312
1033.423	14294
1038.532	14199
1043.636	14034
1048.734	13913
1053.827	13766
1058.915	13533
1063.998	13488
1069.075	13471
1074.147	13491
1079.214	13459
1084.276	13614
1089.333	13707
1094.385	13701
1099.431	13758
1104.472	13820
1109.509	13728
1114.54	13573
1119.565	13387
1124.586	13205
1129.602	13090
1134.613	12992
1139.618	12952
1144.619	12913
1149.614	12923
1154.604	12948
1159.589	12975
1164.57	12941
1169.545	13053
1174.515	13039
1179.48	12972
1184.44	12842
1189.395	12756
1194.345	12690
1199.29	12590
1204.23	12644
1209.165	12662
1214.095	12746
1219.021	12756
1223.941	12883
1228.856	12974
1233.766	13013
1238.672	13048
1243.572	12982
1248.467	12882
1253.358	12700
1258.244	12598
1263.124	12391
1268	12216
1272.871	12053
1277.737	12007
1282.599	11955
1287.455	11886
1292.306	11958
1297.153	11995
1301.995	12033
1306.832	12046
1311.664	12087
1316.491	12086
1321.314	11969
1326.132	11738
1330.945	11480
1335.753	11200
1340.556	10929
1345.354	10717
1350.148	10550
1354.937	10474
1359.722	10431
1364.501	10522
1369.276	10682
1374.046	10777
1378.811	10941
1383.572	11083
1388.327	11012
1393.079	11027
1397.825	10925
1402.567	10795
1407.304	10607
1412.036	10498
1416.764	10445
1421.487	10385
1426.205	10316
1430.919	10268
1435.628	10297
1440.333	10333
1445.032	10323
1449.727	10325
1454.418	10317
1459.104	10250
1463.785	10031
1468.462	9796
1473.134	9604
1477.802	9397
1482.465	9196
1487.123	9140
1491.777	9125
1496.426	9153
1501.071	9251
1505.711	9362
1510.347	9554
1514.978	9751
1519.604	9826
1524.226	9932
1528.844	9946
1533.457	9924
1538.065	9945
1542.669	9839
1547.269	9792
1551.864	9756
1556.454	9683
1561.041	9740
1565.622	9698
1570.199	9686
1574.772	9788
1579.34	9863
1583.904	9910
1588.464	9952
1593.019	9919
1597.569	9910
1602.115	9796
1606.657	9752
1611.195	9718
1615.728	9647
1620.256	9617
1624.78	9621
1629.3	9601
1633.816	9666
1638.327	9620
1642.834	9742
1647.336	9782
1651.834	9787
1656.328	9772
1660.817	9674
1665.302	9594
1669.783	9383
1674.259	9212
1678.732	8910
1683.199	8589
1687.663	8333
1692.122	8095
1696.577	7913
1701.028	7917
1705.474	7965
1709.917	8084
1714.355	8111
1718.788	8084
1723.218	7907
1727.643	7797
1732.064	7650
1736.481	7506
1740.893	7308
1745.301	7128
1749.705	6897
1754.105	6707
1758.501	6529
1762.893	6362
1767.28	6182
1771.663	6008
1776.042	5917
1780.417	5838
1784.787	5867
1789.154	5930
1793.516	5999
1797.874	6127
1802.228	6259
1806.578	6350
1810.924	6310
1815.266	6267
1819.603	6216
1823.937	6125
1828.266	6016
1832.591	5924
1836.913	5829
1841.23	5786
1845.543	5790
1849.852	5719
1854.156	5706
1858.457	5698
1862.754	5708
1867.047	5636
1871.335	5671
1875.62	5633
1879.9	5656
1884.177	5590
1888.449	5520
1892.718	5479
1896.982	5416
1901.243	5342
1905.499	5315
1909.752	5290
1914	5284
1918.245	5273
1922.485	5331
1926.722	5358
1930.954	5450
1935.183	5522
1939.408	5612
1943.628	5640
1947.845	5625
1952.058	5622
1956.267	5608
1960.472	5508
1964.673	5484
1968.87	5336
1973.063	5298
1977.252	5156
1981.438	5161
1985.619	5114
1989.797	5055
1993.971	5029
1998.14	5061
2002.306	4993
2006.469	4963
2010.627	4924
2014.781	4930
2018.932	4854
2023.078	4806
2027.221	4778
2031.36	4668
2035.495	4645
2039.627	4545
2043.754	4512
2047.878	4457
2051.998	4400
2056.114	4410
2060.226	4407
2064.334	4405
2068.439	4426
2072.54	4431
2076.637	4483
2080.73	4506
2084.82	4528
2088.906	4542
2092.988	4557
2097.066	4538
2101.14	4509
2105.211	4522
2109.278	4458
2113.342	4440
2117.401	4407
2121.457	4386
2125.509	4369
2129.558	4377
2133.602	4346
2137.643	4286
2141.681	4295
2145.714	4266
2149.744	4251
2153.77	4215
2157.793	4180
2161.812	4110
2165.827	4062
2169.838	3983
2173.846	3940
2177.851	3856
2181.851	3818
2185.848	3779
2189.841	3740
2193.831	3685
2197.817	3654
2201.799	3653
2205.778	3646
2209.753	3634
2213.725	3601
2217.693	3593
2221.657	3579
2225.618	3576
2229.575	3576
2233.529	3519
2237.479	3471
2241.425	3447
2245.368	3426
2249.307	3355
2253.243	3285
2257.175	3280
2261.104	3246
2265.029	3188
2268.95	3162
2272.868	3133
2276.783	3095
2280.694	3078
2284.601	3064
2288.505	3018
2292.405	3018
2296.302	2975
2300.195	2935
2304.085	2914
2307.971	2848
2311.854	2825
2315.734	2779
2319.609	2738
2323.482	2692
2327.351	2702
2331.216	2667
2335.078	2671
2338.937	2651
2342.792	2648
2346.643	2644
2350.492	2644
2354.336	2632
2358.178	2644
2362.015	2665
2365.85	2643
2369.681	2671
2373.508	2656
2377.333	2651
2381.153	2668
2384.971	2652
2388.785	2624
2392.595	2612
2396.402	2568
2400.206	2559
2404.007	2544
2407.804	2531
2411.597	2497
2415.388	2466
2419.174	2476
2422.958	2451
2426.738	2449
2430.515	2412
2434.289	2410
2438.059	2376
2441.825	2353
2445.589	2346
2449.349	2314
2453.106	2292
2456.859	2281
2460.61	2246
2464.356	2208
2468.1	2191
2471.84	2167
2475.577	2152
2479.311	2133
2483.041	2119
2486.768	2130
2490.492	2097
2494.213	2115
2497.93	2085
2501.644	2084
2505.355	2087
2509.062	2072
2512.766	2065
2516.467	2042
2520.165	2028
2523.859	2008
2527.551	1999
2531.239	1971
2534.923	1976
2538.605	1962
2542.283	1962
2545.958	1951
2549.63	1955
2553.299	1937
2556.964	1925
2560.626	1922
2564.285	1918
2567.941	1914
2571.594	1905
2575.243	1901
2578.89	1885
2582.533	1878
2586.173	1871
2589.809	1842
2593.443	1821
2597.073	1807
2600.701	1785
2604.325	1775
2607.946	1783
2611.564	1759
2615.178	1766
2618.79	1737
2622.398	1732
2626.004	1704
2629.606	1698
2633.205	1650
2636.801	1637
2640.394	1636
2643.983	1593
2647.57	1575
2651.153	1551
2654.734	1516
2658.311	1501
2661.885	1504
2665.456	1465
2669.025	1459
2672.589	1450
2676.151	1423
2679.71	1408
2683.266	1357
2686.819	1346
2690.368	1314
2693.915	1296
2697.458	1288
2700.999	1238
2704.536	1220
2708.071	1196
2711.602	1166
2715.13	1127
2718.656	1113
2722.178	1100
2725.697	1074
2729.214	1059
2732.727	1067
2736.237	1041
2739.744	1057
2743.249	1046
2746.75	1051
2750.248	1054
2753.743	1070
2757.236	1082
2760.725	1083
2764.211	1127
2767.695	1110
2771.175	1105
2774.652	1111
2778.127	1095
2781.598	1086
2785.067	1088
2788.532	1076
2791.995	1067
2795.455	1083
2798.911	1073
2802.365	1090
2805.816	1086
2809.264	1081
2812.709	1060
2816.151	1068
2819.59	1081
2823.026	1087
2826.46	1087
2829.89	1076
2833.318	1089
2836.742	1087
2840.164	1090
2843.583	1104
2846.999	1112
2850.412	1121
2853.822	1141
2857.229	1142
2860.634	1159
2864.035	1183
2867.434	1200
2870.83	1223
2874.223	1237
2877.613	1257
2881	1276
2884.385	1301
2887.766	1287
2891.145	1275
2894.521	1263
2897.894	1257
2901.264	1257
2904.631	1272
2907.996	1271
2911.358	1267
2914.717	1281
2918.073	1292
2921.426	1301
2924.777	1312
2928.124	1329
2931.469	1345
2934.811	1391
2938.15	1391
2941.487	1402
2944.821	1398
2948.152	1377
2951.48	1381
2954.805	1391
2958.128	1353
2961.447	1349
2964.765	1341
2968.079	1348
2971.39	1345
2974.699	1360
2978.005	1386
2981.308	1421
2984.609	1451
2987.907	1467
2991.202	1502
2994.494	1531
2997.784	1523
3001.07	1583
3004.355	1605
3007.636	1628
3010.915	1632
3014.191	1651
3017.464	1669
3020.734	1674
3024.002	1668
3027.267	1698
3030.53	1699
3033.789	1732
3037.046	1740
3040.301	1787
3043.552	1803
3046.801	1845
3050.048	1879
3053.291	1919
3056.532	1984
3059.771	2027
3063.006	2087
3066.239	2146
3069.469	2214
3072.697	2283
3075.922	2325
3079.144	2370
3082.364	2421
3085.581	2476
3088.795	2539
3092.007	2581
3095.216	2633
3098.423	2689
3101.627	2738
3104.828	2783
3108.026	2858
3111.222	2914
3114.416	2992
3117.607	3071
3120.795	3125
3123.98	3194
3127.163	3297
3130.344	3324
3133.521	3438
3136.696	3497
3139.869	3590
3143.039	3616
3146.206	3690
3149.371	3740
3152.533	3734
3155.693	3786
3158.85	3787
3162.005	3832
3165.157	3828
3168.306	3834
3171.453	3833
3174.597	3842
3177.739	3854
3180.878	3831
3184.014	3873
3187.149	3869
3190.28	3881
3193.409	3888
3196.536	3891
3199.659	3889
3202.781	3875
3205.9	3900
3209.016	3880
3212.13	3870
3215.241	3816
3218.35	3805
3221.456	3784
3224.56	3703
3227.661	3706
3230.76	3647
3233.856	3575
3236.95	3551
3240.041	3545
3243.13	3525
3246.216	3473
3249.3	3493
3252.382	3468
3255.46	3456
3258.537	3418
3261.611	3453
3264.682	3425
3267.751	3415
3270.818	3408
3273.882	3373
3276.943	3393
3280.002	3349
3283.059	3330
3286.113	3281
3289.165	3248
3292.214	3180
3295.261	3118
3298.306	3077
3301.348	3052
3304.387	2978
3307.425	2962
3310.459	2931
3313.492	2856
3316.521	2825
3319.549	2803
3322.574	2772
3325.597	2731
3328.617	2720
3331.635	2679
3334.65	2677
3337.663	2690
3340.674	2663
3343.682	2643
3346.688	2655
3349.691	2622
3352.692	2619
3355.691	2582
3358.687	2588
3361.681	2526
3364.673	2517
3367.662	2474
3370.649	2438
3373.633	2392
3376.615	2354
3379.595	2336
3382.572	2297
3385.547	2280
3388.52	2239
3391.49	2190
3394.458	2161
3397.424	2136
3400.387	2101
3403.348	2088
3406.307	2082
3409.263	2063
3412.217	2005
3415.168	1995
3418.118	1974
3421.065	1930
3424.009	1911
3426.951	1870
3429.891	1849
3432.829	1791
3435.764	1737
3438.697	1699
3441.628	1666
3444.557	1634
3447.483	1578
3450.407	1523
3453.328	1471
3456.247	1422
3459.164	1371
3462.079	1319
3464.991	1279
3467.902	1207
3470.809	1165
3473.715	1143
3476.618	1101
3479.519	1060
3482.418	1022
3485.315	998
3488.209	934
3491.101	886
3493.99	880
3496.878	838
3499.763	806
3502.646	774
3505.527	737
3508.405	701
3511.281	649
3514.155	629
3517.027	594
3519.897	556
3522.764	521
3525.629	464
3528.492	435
3531.352	379
3534.211	350
3537.067	308
3539.921	284
3542.773	252
3545.622	223
3548.469	189
3551.315	160
3554.157	142
3556.998	114
3559.837	88
3562.673	68
3565.507	39
3568.339	37
3571.169	11
3573.996	-1
3576.822	-42
3579.645	-51
3582.466	-71
3585.285	-85
3588.101	-97
3590.916	-114
3593.728	-152
3596.538	-166
3599.346	-184
3602.152	-197
3604.956	-215
3607.757	-219
3610.556	-242
3613.354	-264
3616.149	-263
3618.942	-278
3621.732	-286
3624.521	-291
3627.307	-308
3630.092	-313
3632.874	-329
3635.654	-342
3638.432	-338
3641.208	-344
3643.982	-353
3646.753	-372
3649.523	-380
3652.29	-391
3655.055	-397
3657.818	-398
3660.579	-413
3663.338	-414
3666.095	-428
3668.849	-450
3671.602	-450
3674.352	-446
3677.101	-455
3679.847	-470
3682.591	-470
3685.333	-477
3688.073	-477
3690.811	-491
3693.547	-498
3696.281	-500
3699.013	-504
3701.742	-511
3704.47	-516
3707.195	-524
3709.919	-515
3712.64	-526
3715.359	-529
3718.076	-528
3720.792	-538
3723.505	-536
3726.216	-546
3728.925	-540
3731.632	-556
3734.336	-556
3737.039	-555
3739.74	-555
3742.439	-558
3745.136	-557
3747.83	-562
3750.523	-563
3753.213	-567
3755.902	-572
3758.589	-567
3761.273	-566
3763.956	-578
3766.636	-578
3769.315	-573
3771.991	-580
3774.665	-575
3777.338	-578
3780.008	-577
3782.677	-585
3785.343	-584
3788.007	-580
3790.67	-585
3793.33	-590
3795.989	-591
3798.645	-598
3801.299	-598
3803.952	-598
3806.602	-598
3809.251	-602
3811.897	-593
3814.542	-588
3817.184	-593
3819.825	-596
3822.463	-596
3825.1	-602
3827.735	-599
3830.367	-604
3832.998	-603
3835.627	-608
3838.253	-609
3840.878	-606
3843.501	-609
3846.122	-611
3848.741	-603
3851.358	-614
3853.973	-609
3856.586	-605
3859.197	-607
3861.806	-611
3864.414	-609
3867.019	-604
3869.622	-609
3872.224	-605
3874.823	-596
3877.421	-582
3880.016	-566
3882.61	-537
3885.202	-540
3887.792	-561
3890.38	-579
3892.966	-597
3895.55	-609
3898.132	-616
3900.713	-621
3903.291	-621
3905.868	-626
3908.442	-625
3911.015	-625
3913.586	-625
3916.155	-623
3918.722	-619
3921.287	-623
3923.85	-620
3926.411	-625
3928.971	-622
3931.528	-623
3934.084	-618
3936.638	-629
3939.19	-629
3941.74	-629
3944.288	-632
3946.834	-629
3949.378	-634
3951.921	-631
3954.462	-626
3957	-621
3959.537	-622
3962.072	-618
3964.606	-621
3967.137	-624
3969.667	-621
3972.194	-615
3974.72	-619
3977.244	-614
3979.766	-614
3982.286	-618
3984.805	-604
3987.321	-610
3989.836	-616
3992.349	-611
3994.86	-611
3997.369	-622
3999.877	-612
4002.382	-612
4004.886	-619
4007.388	-610
4009.888	-607
4012.386	-610
4014.883	-610
4017.377	-613
4019.87	-613
4022.361	-613
4024.85	-613
4027.338	-620
4029.823	-609
4032.307	-616
4034.789	-620
4037.269	-626
4039.747	-624
4042.224	-617
4044.699	-613
4047.172	-620
4049.643	-610
4052.112	-612
4054.58	-607
4057.046	-620
4059.51	-613
4061.972	-616
4064.432	-611
4066.891	-611
4069.348	-617
4071.803	-618
4074.256	-616
4076.708	-614
4079.158	-621
4081.606	-609
4084.052	-614
4086.497	-615
4088.939	-605
4091.38	-607
4093.819	-610
4096.257	-647
4098.693	-645
4101.127	-649
4103.559	-647
4105.989	-384
4108.418	-366
4110.845	-350
4113.27	-325
4115.694	-288
4118.115	-236
4120.535	-615
4122.954	-624
4125.37	-614
4127.785	-613
4130.198	-617
4132.609	-608
4135.019	-652
4137.427	-650
4139.833	-645
4142.237	-644
