Data from SERSd_Bac2_20uL_I=0.5_T=50s_RamanShift_3.txt Node
Date: Wed Jun 14 15:10:55 IDT 2017
User: aro
Spectrometer: QEPB0276
Trigger mode: 0
Integration Time (sec): 5.000000E1
Scans to average: 1
Electric dark correction enabled: true
Nonlinearity correction enabled: false
Boxcar width: 0
XAxis mode: Raman Shifts
Number of Pixels in Spectrum: 1044
>>>>>Begin Spectral Data<<<<<
160.701	-3.12
166.742	1.88
172.777	9.88
178.805	10.88
184.826	24.88
190.841	73.88
196.849	153.88
202.85	191.88
208.845	215.88
214.833	214.88
220.815	204.88
226.789	184.88
232.758	233.88
238.719	229.88
244.674	268.88
250.623	186.88
256.565	200.88
262.5	178.88
268.429	88.88
274.351	39.88
280.267	142.88
286.176	143.88
292.079	102.88
297.975	113.88
303.865	113.88
309.748	103.88
315.625	96.88
321.495	72.88
327.359	73.88
333.217	32.88
339.068	60.88
344.912	41.88
350.751	-8.12
356.583	1.88
362.408	-29.12
368.227	-37.12
374.04	-32.12
379.847	-58.12
385.647	-67.12
391.44	-93.12
397.228	-43.12
403.009	-77.12
408.784	-112.12
414.553	-82.12
420.315	-112.12
426.071	-113.12
431.821	-117.12
437.565	-149.12
443.302	-171.12
449.033	-149.12
454.758	-164.12
460.477	-157.12
466.189	-194.12
471.896	-222.12
477.596	-197.12
483.29	-190.12
488.978	-226.12
494.66	-199.12
500.335	-233.12
506.005	-230.12
511.668	-251.12
517.325	-302.12
522.977	-322.12
528.622	-400.12
534.261	-359.12
539.894	-355.12
545.521	-345.12
551.141	-363.12
556.756	-329.12
562.365	-310.12
567.968	-328.12
573.565	-322.12
579.155	-313.12
584.74	-303.12
590.319	-324.12
595.892	-338.12
601.459	-276.12
607.02	-312.12
612.575	-325.12
618.124	-332.12
623.667	-294.12
629.204	-311.12
634.735	-332.12
640.261	-353.12
645.781	-331.12
651.294	-312.12
656.802	-314.12
662.304	-334.12
667.8	-311.12
673.29	-304.12
678.775	-292.12
684.254	-300.12
689.726	-330.12
695.193	-305.12
700.655	-293.12
706.11	-291.12
711.56	-291.12
717.004	-283.12
722.442	-283.12
727.874	-314.12
733.301	-275.12
738.722	-249.12
744.137	-230.12
749.547	-262.12
754.951	-262.12
760.349	-242.12
765.741	-233.12
771.128	-245.12
776.509	-227.12
781.885	-219.12
787.254	-230.12
792.618	-206.12
797.977	-191.12
803.33	-208.12
808.677	-200.12
814.019	-169.12
819.355	-174.12
824.686	-162.12
830.011	-169.12
835.33	-122.12
840.644	-173.12
845.952	-119.12
851.255	-152.12
856.552	-137.12
861.844	-127.12
867.13	-118.12
872.41	-137.12
877.686	-119.12
882.955	-135.12
888.219	-129.12
893.478	-115.12
898.731	-112.12
903.979	-84.12
909.221	-92.12
914.458	-103.12
919.69	-105.12
924.916	-112.12
930.136	-68.12
935.351	-67.12
940.561	-60.12
945.766	-56.12
950.965	-21.12
956.158	-6.12
961.347	-56.12
966.529	-19.12
971.707	-38.12
976.879	-29.12
982.046	-25.12
987.208	-28.12
992.364	-34.12
997.515	-51.12
1002.66	-40.12
1007.801	-77.12
1012.936	-58.12
1018.066	-61.12
1023.19	-85.12
1028.309	-64.12
1033.423	-98.12
1038.532	-58.12
1043.636	-74.12
1048.734	-65.12
1053.827	-69.12
1058.915	-59.12
1063.998	-62.12
1069.075	-72.12
1074.147	-61.12
1079.214	-85.12
1084.276	-83.12
1089.333	-90.12
1094.385	-93.12
1099.431	-101.12
1104.472	-85.12
1109.509	-116.12
1114.54	-123.12
1119.565	-127.12
1124.586	-103.12
1129.602	-131.12
1134.613	-129.12
1139.618	-132.12
1144.619	-138.12
1149.614	-180.12
1154.604	-174.12
1159.589	-160.12
1164.57	-152.12
1169.545	-161.12
1174.515	-184.12
1179.48	-163.12
1184.44	-184.12
1189.395	-200.12
1194.345	-195.12
1199.29	-196.12
1204.23	-201.12
1209.165	-183.12
1214.095	-216.12
1219.021	-239.12
1223.941	-230.12
1228.856	-247.12
1233.766	-254.12
1238.672	-260.12
1243.572	-293.12
1248.467	-268.12
1253.358	-281.12
1258.244	-298.12
1263.124	-297.12
1268	-312.12
1272.871	-280.12
1277.737	-276.12
1282.599	-285.12
1287.455	-290.12
1292.306	-304.12
1297.153	-309.12
1301.995	-330.12
1306.832	-336.12
1311.664	-336.12
1316.491	-369.12
1321.314	-352.12
1326.132	-372.12
1330.945	-357.12
1335.753	-351.12
1340.556	-353.12
1345.354	-388.12
1350.148	-394.12
1354.937	-401.12
1359.722	-370.12
1364.501	-399.12
1369.276	-377.12
1374.046	-383.12
1378.811	-379.12
1383.572	-392.12
1388.327	-365.12
1393.079	-366.12
1397.825	-375.12
1402.567	-381.12
1407.304	-384.12
1412.036	-381.12
1416.764	-413.12
1421.487	-392.12
1426.205	-428.12
1430.919	-423.12
1435.628	-425.12
1440.333	-457.12
1445.032	-434.12
1449.727	-440.12
1454.418	-444.12
1459.104	-470.12
1463.785	-448.12
1468.462	-487.12
1473.134	-473.12
1477.802	-496.12
1482.465	-462.12
1487.123	-468.12
1491.777	-479.12
1496.426	-487.12
1501.071	-454.12
1505.711	-507.12
1510.347	-490.12
1514.978	-476.12
1519.604	-489.12
1524.226	-468.12
1528.844	-464.12
1533.457	-453.12
1538.065	-437.12
1542.669	-447.12
1547.269	-436.12
1551.864	-420.12
1556.454	-432.12
1561.041	-445.12
1565.622	-422.12
1570.199	-429.12
1574.772	-423.12
1579.34	-450.12
1583.904	-451.12
1588.464	-438.12
1593.019	-441.12
1597.569	-427.12
1602.115	-424.12
1606.657	-403.12
1611.195	-434.12
1615.728	-414.12
1620.256	-420.12
1624.78	-388.12
1629.3	-422.12
1633.816	-390.12
1638.327	-375.12
1642.834	-416.12
1647.336	-389.12
1651.834	-389.12
1656.328	-402.12
1660.817	-419.12
1665.302	-403.12
1669.783	-419.12
1674.259	-414.12
1678.732	-400.12
1683.199	-405.12
1687.663	-390.12
1692.122	-411.12
1696.577	-396.12
1701.028	-394.12
1705.474	-373.12
1709.917	-362.12
1714.355	-356.12
1718.788	-330.12
1723.218	-333.12
1727.643	-345.12
1732.064	-331.12
1736.481	-325.12
1740.893	-317.12
1745.301	-296.12
1749.705	-309.12
1754.105	-294.12
1758.501	-301.12
1762.893	-287.12
1767.28	-304.12
1771.663	-292.12
1776.042	-290.12
1780.417	-294.12
1784.787	-313.12
1789.154	-294.12
1793.516	-297.12
1797.874	-294.12
1802.228	-310.12
1806.578	-267.12
1810.924	-250.12
1815.266	-269.12
1819.603	-279.12
1823.937	-264.12
1828.266	-239.12
1832.591	-229.12
1836.913	-245.12
1841.23	-234.12
1845.543	-239.12
1849.852	-252.12
1854.156	-250.12
1858.457	-253.12
1862.754	-266.12
1867.047	-236.12
1871.335	-255.12
1875.62	-236.12
1879.9	-249.12
1884.177	-247.12
1888.449	-251.12
1892.718	-279.12
1896.982	-267.12
1901.243	-264.12
1905.499	-260.12
1909.752	-291.12
1914	-257.12
1918.245	-252.12
1922.485	-285.12
1926.722	-245.12
1930.954	-274.12
1935.183	-257.12
1939.408	-276.12
1943.628	-256.12
1947.845	-272.12
1952.058	-282.12
1956.267	-287.12
1960.472	-269.12
1964.673	-260.12
1968.87	-277.12
1973.063	-261.12
1977.252	-288.12
1981.438	-259.12
1985.619	-296.12
1989.797	-258.12
1993.971	-273.12
1998.14	-263.12
2002.306	-259.12
2006.469	-278.12
2010.627	-282.12
2014.781	-273.12
2018.932	-287.12
2023.078	-314.12
2027.221	-299.12
2031.36	-292.12
2035.495	-279.12
2039.627	-313.12
2043.754	-327.12
2047.878	-314.12
2051.998	-344.12
2056.114	-330.12
2060.226	-347.12
2064.334	-369.12
2068.439	-338.12
2072.54	-373.12
2076.637	-412.12
2080.73	-408.12
2084.82	-387.12
2088.906	-409.12
2092.988	-405.12
2097.066	-411.12
2101.14	-410.12
2105.211	-418.12
2109.278	-433.12
2113.342	-378.12
2117.401	-439.12
2121.457	-412.12
2125.509	-429.12
2129.558	-420.12
2133.602	-442.12
2137.643	-441.12
2141.681	-453.12
2145.714	-475.12
2149.744	-443.12
2153.77	-490.12
2157.793	-473.12
2161.812	-502.12
2165.827	-504.12
2169.838	-513.12
2173.846	-518.12
2177.851	-508.12
2181.851	-493.12
2185.848	-539.12
2189.841	-514.12
2193.831	-530.12
2197.817	-557.12
2201.799	-537.12
2205.778	-517.12
2209.753	-553.12
2213.725	-564.12
2217.693	-579.12
2221.657	-590.12
2225.618	-591.12
2229.575	-612.12
2233.529	-628.12
2237.479	-636.12
2241.425	-627.12
2245.368	-602.12
2249.307	-628.12
2253.243	-628.12
2257.175	-609.12
2261.104	-613.12
2265.029	-627.12
2268.95	-630.12
2272.868	-649.12
2276.783	-654.12
2280.694	-650.12
2284.601	-617.12
2288.505	-623.12
2292.405	-631.12
2296.302	-627.12
2300.195	-609.12
2304.085	-622.12
2307.971	-628.12
2311.854	-629.12
2315.734	-632.12
2319.609	-630.12
2323.482	-625.12
2327.351	-627.12
2331.216	-613.12
2335.078	-589.12
2338.937	-631.12
2342.792	-633.12
2346.643	-641.12
2350.492	-597.12
2354.336	-610.12
2358.178	-642.12
2362.015	-623.12
2365.85	-676.12
2369.681	-630.12
2373.508	-647.12
2377.333	-632.12
2381.153	-660.12
2384.971	-630.12
2388.785	-632.12
2392.595	-650.12
2396.402	-625.12
2400.206	-641.12
2404.007	-648.12
2407.804	-630.12
2411.597	-608.12
2415.388	-647.12
2419.174	-624.12
2422.958	-631.12
2426.738	-644.12
2430.515	-601.12
2434.289	-568.12
2438.059	-624.12
2441.825	-595.12
2445.589	-596.12
2449.349	-562.12
2453.106	-549.12
2456.859	-569.12
2460.61	-535.12
2464.356	-542.12
2468.1	-555.12
2471.84	-530.12
2475.577	-521.12
2479.311	-525.12
2483.041	-529.12
2486.768	-530.12
2490.492	-533.12
2494.213	-507.12
2497.93	-499.12
2501.644	-477.12
2505.355	-480.12
2509.062	-460.12
2512.766	-511.12
2516.467	-436.12
2520.165	-483.12
2523.859	-485.12
2527.551	-428.12
2531.239	-408.12
2534.923	-416.12
2538.605	-427.12
2542.283	-462.12
2545.958	-367.12
2549.63	-374.12
2553.299	-389.12
2556.964	-375.12
2560.626	-340.12
2564.285	-376.12
2567.941	-343.12
2571.594	-323.12
2575.243	-285.12
2578.89	-306.12
2582.533	-324.12
2586.173	-258.12
2589.809	-243.12
2593.443	-237.12
2597.073	-204.12
2600.701	-226.12
2604.325	-206.12
2607.946	-164.12
2611.564	-212.12
2615.178	-201.12
2618.79	-147.12
2622.398	-145.12
2626.004	-148.12
2629.606	-156.12
2633.205	-104.12
2636.801	-58.12
2640.394	-103.12
2643.983	-69.12
2647.57	-88.12
2651.153	-96.12
2654.734	-71.12
2658.311	-29.12
2661.885	-59.12
2665.456	-31.12
2669.025	-21.12
2672.589	-15.12
2676.151	-20.12
2679.71	-52.12
2683.266	8.88
2686.819	1.88
2690.368	-33.12
2693.915	8.88
2697.458	6.88
2700.999	22.88
2704.536	6.88
2708.071	-0.12
2711.602	-38.12
2715.13	28.88
2718.656	-40.12
2722.178	26.88
2725.697	-23.12
2729.214	12.88
2732.727	-53.12
2736.237	34.88
2739.744	-16.12
2743.249	-6.12
2746.75	40.88
2750.248	37.88
2753.743	-1.12
2757.236	-4.12
2760.725	-34.12
2764.211	-37.12
2767.695	-12.12
2771.175	-51.12
2774.652	2.88
2778.127	-74.12
2781.598	-40.12
2785.067	-59.12
2788.532	-63.12
2791.995	-47.12
2795.455	-46.12
2798.911	-52.12
2802.365	-72.12
2805.816	-90.12
2809.264	-113.12
2812.709	-83.12
2816.151	-91.12
2819.59	-145.12
2823.026	-118.12
2826.46	-118.12
2829.89	-184.12
2833.318	-123.12
2836.742	-157.12
2840.164	-160.12
2843.583	-153.12
2846.999	-176.12
2850.412	-219.12
2853.822	-206.12
2857.229	-220.12
2860.634	-257.12
2864.035	-306.12
2867.434	-273.12
2870.83	-288.12
2874.223	-280.12
2877.613	-335.12
2881	-298.12
2884.385	-306.12
2887.766	-349.12
2891.145	-351.12
2894.521	-336.12
2897.894	-399.12
2901.264	-338.12
2904.631	-367.12
2907.996	-432.12
2911.358	-376.12
2914.717	-396.12
2918.073	-496.12
2921.426	-461.12
2924.777	-473.12
2928.124	-469.12
2931.469	-503.12
2934.811	-494.12
2938.15	-541.12
2941.487	-526.12
2944.821	-627.12
2948.152	-533.12
2951.48	-620.12
2954.805	-595.12
2958.128	-634.12
2961.447	-572.12
2964.765	-631.12
2968.079	-662.12
2971.39	-643.12
2974.699	-649.12
2978.005	-718.12
2981.308	-675.12
2984.609	-718.12
2987.907	-719.12
2991.202	-729.12
2994.494	-749.12
2997.784	-680.12
3001.07	-739.12
3004.355	-731.12
3007.636	-766.12
3010.915	-723.12
3014.191	-723.12
3017.464	-767.12
3020.734	-750.12
3024.002	-772.12
3027.267	-762.12
3030.53	-746.12
3033.789	-734.12
3037.046	-775.12
3040.301	-799.12
3043.552	-820.12
3046.801	-816.12
3050.048	-759.12
3053.291	-819.12
3056.532	-781.12
3059.771	-835.12
3063.006	-840.12
3066.239	-849.12
3069.469	-876.12
3072.697	-862.12
3075.922	-909.12
3079.144	-867.12
3082.364	-891.12
3085.581	-942.12
3088.795	-893.12
3092.007	-921.12
3095.216	-917.12
3098.423	-901.12
3101.627	-923.12
3104.828	-909.12
3108.026	-949.12
3111.222	-950.12
3114.416	-929.12
3117.607	-915.12
3120.795	-879.12
3123.98	-951.12
3127.163	-946.12
3130.344	-911.12
3133.521	-893.12
3136.696	-925.12
3139.869	-900.12
3143.039	-920.12
3146.206	-929.12
3149.371	-908.12
3152.533	-868.12
3155.693	-875.12
3158.85	-891.12
3162.005	-821.12
3165.157	-830.12
3168.306	-810.12
3171.453	-793.12
3174.597	-778.12
3177.739	-802.12
3180.878	-789.12
3184.014	-789.12
3187.149	-777.12
3190.28	-738.12
3193.409	-736.12
3196.536	-709.12
3199.659	-680.12
3202.781	-696.12
3205.9	-697.12
3209.016	-713.12
3212.13	-698.12
3215.241	-677.12
3218.35	-679.12
3221.456	-678.12
3224.56	-688.12
3227.661	-620.12
3230.76	-636.12
3233.856	-601.12
3236.95	-633.12
3240.041	-566.12
3243.13	-584.12
3246.216	-604.12
3249.3	-544.12
3252.382	-573.12
3255.46	-539.12
3258.537	-539.12
3261.611	-548.12
3264.682	-512.12
3267.751	-500.12
3270.818	-506.12
3273.882	-489.12
3276.943	-500.12
3280.002	-470.12
3283.059	-470.12
3286.113	-449.12
3289.165	-426.12
3292.214	-399.12
3295.261	-418.12
3298.306	-389.12
3301.348	-356.12
3304.387	-370.12
3307.425	-345.12
3310.459	-373.12
3313.492	-342.12
3316.521	-296.12
3319.549	-315.12
3322.574	-317.12
3325.597	-319.12
3328.617	-268.12
3331.635	-263.12
3334.65	-272.12
3337.663	-227.12
3340.674	-241.12
3343.682	-228.12
3346.688	-256.12
3349.691	-250.12
3352.692	-236.12
3355.691	-252.12
3358.687	-237.12
3361.681	-246.12
3364.673	-198.12
3367.662	-192.12
3370.649	-171.12
3373.633	-165.12
3376.615	-154.12
3379.595	-172.12
3382.572	-138.12
3385.547	-188.12
3388.52	-145.12
3391.49	-134.12
3394.458	-123.12
3397.424	-142.12
3400.387	-91.12
3403.348	-111.12
3406.307	-132.12
3409.263	-113.12
3412.217	-78.12
3415.168	-112.12
3418.118	-95.12
3421.065	-96.12
3424.009	-93.12
3426.951	-103.12
3429.891	-79.12
3432.829	-58.12
3435.764	-60.12
3438.697	-76.12
3441.628	-51.12
3444.557	-52.12
3447.483	-72.12
3450.407	-56.12
3453.328	-18.12
3456.247	-59.12
3459.164	-26.12
3462.079	-29.12
3464.991	-19.12
3467.902	-32.12
3470.809	-18.12
3473.715	-24.12
3476.618	-31.12
3479.519	-28.12
3482.418	-24.12
3485.315	-5.12
3488.209	-15.12
3491.101	-36.12
3493.99	17.88
3496.878	-16.12
3499.763	-20.12
3502.646	0.88
3505.527	-15.12
3508.405	-3.12
3511.281	-5.12
3514.155	-17.12
3517.027	16.88
3519.897	-1.12
3522.764	7.88
3525.629	-12.12
3528.492	23.88
3531.352	9.88
3534.211	9.88
3537.067	23.88
3539.921	17.88
3542.773	24.88
3545.622	-5.12
3548.469	-8.12
3551.315	3.88
3554.157	-3.12
3556.998	0.88
3559.837	7.88
3562.673	17.88
3565.507	13.88
3568.339	8.88
3571.169	-5.12
3573.996	2.88
3576.822	-0.12
3579.645	4.88
3582.466	13.88
3585.285	0.88
3588.101	-8.12
3590.916	13.88
3593.728	-6.12
3596.538	-8.12
3599.346	16.88
3602.152	16.88
3604.956	10.88
3607.757	0.88
3610.556	0.88
3613.354	-9.12
3616.149	3.88
3618.942	0.88
3621.732	-17.12
3624.521	-14.12
3627.307	4.88
3630.092	-18.12
3632.874	-15.12
3635.654	-14.12
3638.432	-27.12
3641.208	-8.12
3643.982	-3.12
3646.753	-13.12
3649.523	-10.12
3652.29	-6.12
3655.055	-24.12
3657.818	-10.12
3660.579	-11.12
3663.338	-9.12
3666.095	-12.12
3668.849	-18.12
3671.602	-14.12
3674.352	-16.12
3677.101	-6.12
3679.847	-14.12
3682.591	-29.12
3685.333	-20.12
3688.073	-35.12
3690.811	-22.12
3693.547	-22.12
3696.281	-34.12
3699.013	-39.12
3701.742	-25.12
3704.47	-29.12
3707.195	-33.12
3709.919	-41.12
3712.64	-48.12
3715.359	-29.12
3718.076	-38.12
3720.792	-42.12
3723.505	-39.12
3726.216	-23.12
3728.925	-18.12
3731.632	-35.12
3734.336	-27.12
3737.039	-22.12
3739.74	-39.12
3742.439	-35.12
3745.136	-53.12
3747.83	-35.12
3750.523	-39.12
3753.213	-65.12
3755.902	-44.12
3758.589	-63.12
3761.273	-54.12
3763.956	-53.12
3766.636	-56.12
3769.315	-40.12
3771.991	-48.12
3774.665	-45.12
3777.338	-56.12
3780.008	-49.12
3782.677	-64.12
3785.343	-49.12
3788.007	-47.12
3790.67	-46.12
3793.33	-47.12
3795.989	-44.12
3798.645	-54.12
3801.299	-37.12
3803.952	-44.12
3806.602	-48.12
3809.251	-49.12
3811.897	-48.12
3814.542	-42.12
3817.184	-66.12
3819.825	-45.12
3822.463	-44.12
3825.1	-62.12
3827.735	-55.12
3830.367	-57.12
3832.998	-47.12
3835.627	-48.12
3838.253	-48.12
3840.878	-59.12
3843.501	-46.12
3846.122	-55.12
3848.741	-51.12
3851.358	-41.12
3853.973	-51.12
3856.586	-41.12
3859.197	-44.12
3861.806	-46.12
3864.414	-43.12
3867.019	-37.12
3869.622	-37.12
3872.224	-48.12
3874.823	-56.12
3877.421	-43.12
3880.016	-34.12
3882.61	-35.12
3885.202	-43.12
3887.792	-45.12
3890.38	-49.12
3892.966	-41.12
3895.55	-33.12
3898.132	-36.12
3900.713	-37.12
3903.291	-31.12
3905.868	-37.12
3908.442	-36.12
3911.015	-23.12
3913.586	-35.12
3916.155	-28.12
3918.722	-27.12
3921.287	-21.12
3923.85	-25.12
3926.411	-26.12
3928.971	-18.12
3931.528	-17.12
3934.084	-21.12
3936.638	-21.12
3939.19	-22.12
3941.74	-15.12
3944.288	-24.12
3946.834	-23.12
3949.378	-22.12
3951.921	-19.12
3954.462	-22.12
3957	-23.12
3959.537	-33.12
3962.072	-30.12
3964.606	-20.12
3967.137	-30.12
3969.667	-15.12
3972.194	-25.12
3974.72	-17.12
3977.244	-16.12
3979.766	-15.12
3982.286	-15.12
3984.805	-18.12
3987.321	-14.12
3989.836	-15.12
3992.349	-14.12
3994.86	-15.12
3997.369	-14.12
3999.877	-15.12
4002.382	-19.12
4004.886	-21.12
4007.388	-24.12
4009.888	-19.12
4012.386	-17.12
4014.883	-18.12
4017.377	-10.12
4019.87	-13.12
4022.361	-15.12
4024.85	-21.12
4027.338	-17.12
4029.823	-13.12
4032.307	-24.12
4034.789	-9.12
4037.269	-16.12
4039.747	-9.12
4042.224	-17.12
4044.699	-14.12
4047.172	-11.12
4049.643	-15.12
4052.112	-21.12
4054.58	-17.12
4057.046	-21.12
4059.51	-10.12
4061.972	-18.12
4064.432	-19.12
4066.891	-15.12
4069.348	-18.12
4071.803	-23.12
4074.256	-13.12
4076.708	-15.12
4079.158	-20.12
4081.606	-10.12
4084.052	-15.12
4086.497	-14.12
4088.939	-10.12
4091.38	-7.12
4093.819	-8.12
4096.257	-9.12
4098.693	-9.12
4101.127	-4.12
4103.559	-5.12
4105.989	-5.12
4108.418	-6.12
4110.845	0.88
4113.27	1.88
4115.694	-5.12
4118.115	2.88
4120.535	-4.12
4122.954	-2.12
4125.37	-7.12
4127.785	-16.12
4130.198	-14.12
4132.609	-12.12
4135.019	-5.12
4137.427	-4.12
4139.833	-6.12
4142.237	-4.12
