Data from Water_10CFU_RamanShift_11-13-23-909.txt Node
Date: Sun Dec 18 11:13:23 IST 2016
User: aro
Spectrometer: QEPB0276
Trigger mode: 0
Integration Time (sec): 5.000000E0
Scans to average: 1
Electric dark correction enabled: true
Nonlinearity correction enabled: false
Boxcar width: 0
XAxis mode: Raman Shifts
Number of Pixels in Spectrum: 1044
>>>>>Begin Spectral Data<<<<<
160.701	5
166.742	20
172.777	67
178.805	202
184.826	617
190.841	1502
196.849	2730
202.85	3892
208.845	4494
214.833	4521
220.815	4336
226.789	4167
232.758	4101
238.719	3960
244.674	3829
250.623	3678
256.565	3543
262.5	3367
268.429	3219
274.351	3080
280.267	2942
286.176	2850
292.079	2739
297.975	2652
303.865	2570
309.748	2491
315.625	2446
321.495	2398
327.359	2327
333.217	2297
339.068	2281
344.912	2259
350.751	2252
356.583	2246
362.408	2230
368.227	2237
374.04	2227
379.847	2238
385.647	2241
391.44	2247
397.228	2284
403.009	2277
408.784	2298
414.553	2293
420.315	2300
426.071	2301
431.821	2327
437.565	2291
443.302	2302
449.033	2308
454.758	2294
460.477	2295
466.189	2253
471.896	2272
477.596	2262
483.29	2253
488.978	2231
494.66	2232
500.335	2218
506.005	2190
511.668	2139
517.325	2088
522.977	2056
528.622	2034
534.261	2040
539.894	1989
545.521	1984
551.141	1975
556.756	1945
562.365	1941
567.968	1937
573.565	1918
579.155	1916
584.74	1911
590.319	1877
595.892	1861
601.459	1852
607.02	1854
612.575	1833
618.124	1819
623.667	1798
629.204	1800
634.735	1774
640.261	1766
645.781	1735
651.294	1747
656.802	1733
662.304	1729
667.8	1701
673.29	1736
678.775	1727
684.254	1701
689.726	1688
695.193	1678
700.655	1669
706.11	1666
711.56	1643
717.004	1634
722.442	1647
727.874	1624
733.301	1615
738.722	1602
744.137	1596
749.547	1585
754.951	1584
760.349	1577
765.741	1587
771.128	1578
776.509	1574
781.885	1583
787.254	1589
792.618	1573
797.977	1578
803.33	1557
808.677	1542
814.019	1535
819.355	1519
824.686	1508
830.011	1487
835.33	1475
840.644	1453
845.952	1482
851.255	1469
856.552	1455
861.844	1448
867.13	1443
872.41	1424
877.686	1416
882.955	1402
888.219	1399
893.478	1352
898.731	1332
903.979	1331
909.221	1297
914.458	1301
919.69	1310
924.916	1286
930.136	1276
935.351	1287
940.561	1280
945.766	1287
950.965	1278
956.158	1270
961.347	1256
966.529	1234
971.707	1219
976.879	1211
982.046	1185
987.208	1188
992.364	1173
997.515	1184
1002.66	1185
1007.801	1194
1012.936	1212
1018.066	1216
1023.19	1245
1028.309	1240
1033.423	1223
1038.532	1231
1043.636	1224
1048.734	1190
1053.827	1184
1058.915	1172
1063.998	1168
1069.075	1163
1074.147	1160
1079.214	1179
1084.276	1172
1089.333	1190
1094.385	1193
1099.431	1204
1104.472	1205
1109.509	1194
1114.54	1185
1119.565	1185
1124.586	1160
1129.602	1156
1134.613	1151
1139.618	1130
1144.619	1144
1149.614	1132
1154.604	1142
1159.589	1161
1164.57	1147
1169.545	1153
1174.515	1154
1179.48	1175
1184.44	1153
1189.395	1148
1194.345	1157
1199.29	1141
1204.23	1130
1209.165	1134
1214.095	1128
1219.021	1143
1223.941	1167
1228.856	1159
1233.766	1154
1238.672	1156
1243.572	1177
1248.467	1168
1253.358	1153
1258.244	1156
1263.124	1132
1268	1123
1272.871	1109
1277.737	1072
1282.599	1085
1287.455	1089
1292.306	1082
1297.153	1100
1301.995	1096
1306.832	1100
1311.664	1109
1316.491	1114
1321.314	1117
1326.132	1117
1330.945	1104
1335.753	1090
1340.556	1087
1345.354	1067
1350.148	1044
1354.937	1059
1359.722	1049
1364.501	1047
1369.276	1045
1374.046	1040
1378.811	1014
1383.572	1020
1388.327	1010
1393.079	1007
1397.825	991
1402.567	995
1407.304	996
1412.036	975
1416.764	980
1421.487	972
1426.205	983
1430.919	990
1435.628	1008
1440.333	1007
1445.032	1010
1449.727	1026
1454.418	1017
1459.104	1021
1463.785	1019
1468.462	1015
1473.134	1017
1477.802	1000
1482.465	995
1487.123	981
1491.777	995
1496.426	1006
1501.071	1000
1505.711	1017
1510.347	1032
1514.978	1046
1519.604	1043
1524.226	1080
1528.844	1079
1533.457	1069
1538.065	1058
1542.669	1057
1547.269	1047
1551.864	1035
1556.454	1045
1561.041	1054
1565.622	1062
1570.199	1066
1574.772	1104
1579.34	1099
1583.904	1114
1588.464	1137
1593.019	1160
1597.569	1176
1602.115	1194
1606.657	1195
1611.195	1199
1615.728	1210
1620.256	1236
1624.78	1233
1629.3	1268
1633.816	1282
1638.327	1309
1642.834	1337
1647.336	1335
1651.834	1333
1656.328	1357
1660.817	1342
1665.302	1331
1669.783	1324
1674.259	1285
1678.732	1248
1683.199	1228
1687.663	1164
1692.122	1135
1696.577	1118
1701.028	1062
1705.474	1019
1709.917	992
1714.355	968
1718.788	934
1723.218	923
1727.643	909
1732.064	890
1736.481	858
1740.893	843
1745.301	821
1749.705	795
1754.105	782
1758.501	758
1762.893	750
1767.28	727
1771.663	723
1776.042	730
1780.417	712
1784.787	710
1789.154	716
1793.516	714
1797.874	718
1802.228	723
1806.578	708
1810.924	707
1815.266	701
1819.603	690
1823.937	668
1828.266	661
1832.591	656
1836.913	650
1841.23	652
1845.543	638
1849.852	635
1854.156	647
1858.457	642
1862.754	652
1867.047	652
1871.335	651
1875.62	643
1879.9	674
1884.177	658
1888.449	662
1892.718	659
1896.982	657
1901.243	661
1905.499	654
1909.752	651
1914	653
1918.245	656
1922.485	654
1926.722	657
1930.954	662
1935.183	664
1939.408	669
1943.628	662
1947.845	658
1952.058	670
1956.267	674
1960.472	665
1964.673	652
1968.87	638
1973.063	638
1977.252	630
1981.438	626
1985.619	621
1989.797	638
1993.971	626
1998.14	619
2002.306	621
2006.469	627
2010.627	625
2014.781	632
2018.932	633
2023.078	627
2027.221	631
2031.36	627
2035.495	628
2039.627	622
2043.754	610
2047.878	618
2051.998	617
2056.114	611
2060.226	608
2064.334	610
2068.439	616
2072.54	635
2076.637	643
2080.73	636
2084.82	632
2088.906	639
2092.988	646
2097.066	633
2101.14	636
2105.211	632
2109.278	630
2113.342	636
2117.401	625
2121.457	625
2125.509	611
2129.558	613
2133.602	615
2137.643	599
2141.681	597
2145.714	595
2149.744	595
2153.77	587
2157.793	584
2161.812	586
2165.827	574
2169.838	569
2173.846	564
2177.851	543
2181.851	543
2185.848	540
2189.841	530
2193.831	524
2197.817	523
2201.799	511
2205.778	520
2209.753	510
2213.725	511
2217.693	509
2221.657	512
2225.618	516
2229.575	510
2233.529	508
2237.479	508
2241.425	500
2245.368	484
2249.307	480
2253.243	470
2257.175	475
2261.104	463
2265.029	465
2268.95	455
2272.868	444
2276.783	450
2280.694	436
2284.601	437
2288.505	427
2292.405	425
2296.302	420
2300.195	404
2304.085	413
2307.971	400
2311.854	398
2315.734	390
2319.609	386
2323.482	381
2327.351	373
2331.216	371
2335.078	370
2338.937	372
2342.792	363
2346.643	363
2350.492	366
2354.336	355
2358.178	352
2362.015	351
2365.85	358
2369.681	356
2373.508	362
2377.333	349
2381.153	352
2384.971	355
2388.785	356
2392.595	355
2396.402	340
2400.206	346
2404.007	346
2407.804	347
2411.597	344
2415.388	335
2419.174	340
2422.958	341
2426.738	334
2430.515	328
2434.289	334
2438.059	329
2441.825	327
2445.589	327
2449.349	327
2453.106	322
2456.859	324
2460.61	323
2464.356	317
2468.1	315
2471.84	311
2475.577	307
2479.311	311
2483.041	316
2486.768	310
2490.492	310
2494.213	311
2497.93	313
2501.644	315
2505.355	314
2509.062	317
2512.766	304
2516.467	313
2520.165	308
2523.859	302
2527.551	295
2531.239	296
2534.923	293
2538.605	297
2542.283	290
2545.958	290
2549.63	287
2553.299	286
2556.964	297
2560.626	287
2564.285	286
2567.941	281
2571.594	286
2575.243	275
2578.89	272
2582.533	278
2586.173	266
2589.809	273
2593.443	270
2597.073	266
2600.701	272
2604.325	278
2607.946	269
2611.564	267
2615.178	272
2618.79	266
2622.398	267
2626.004	256
2629.606	264
2633.205	258
2636.801	253
2640.394	261
2643.983	246
2647.57	241
2651.153	238
2654.734	235
2658.311	237
2661.885	241
2665.456	228
2669.025	230
2672.589	229
2676.151	236
2679.71	222
2683.266	220
2686.819	227
2690.368	221
2693.915	223
2697.458	222
2700.999	215
2704.536	212
2708.071	212
2711.602	215
2715.13	204
2718.656	206
2722.178	210
2725.697	205
2729.214	207
2732.727	203
2736.237	210
2739.744	216
2743.249	216
2746.75	213
2750.248	219
2753.743	214
2757.236	220
2760.725	219
2764.211	209
2767.695	211
2771.175	209
2774.652	208
2778.127	201
2781.598	197
2785.067	201
2788.532	203
2791.995	206
2795.455	211
2798.911	208
2802.365	208
2805.816	210
2809.264	213
2812.709	216
2816.151	214
2819.59	215
2823.026	218
2826.46	213
2829.89	217
2833.318	219
2836.742	215
2840.164	223
2843.583	219
2846.999	216
2850.412	221
2853.822	223
2857.229	223
2860.634	232
2864.035	239
2867.434	243
2870.83	238
2874.223	238
2877.613	240
2881	244
2884.385	245
2887.766	246
2891.145	250
2894.521	250
2897.894	247
2901.264	254
2904.631	247
2907.996	265
2911.358	258
2914.717	252
2918.073	265
2921.426	261
2924.777	268
2928.124	272
2931.469	277
2934.811	283
2938.15	283
2941.487	301
2944.821	299
2948.152	308
2951.48	302
2954.805	314
2958.128	316
2961.447	324
2964.765	328
2968.079	333
2971.39	341
2974.699	348
2978.005	355
2981.308	365
2984.609	379
2987.907	388
2991.202	390
2994.494	400
2997.784	414
3001.07	428
3004.355	435
3007.636	441
3010.915	458
3014.191	465
3017.464	464
3020.734	477
3024.002	485
3027.267	497
3030.53	500
3033.789	509
3037.046	527
3040.301	533
3043.552	544
3046.801	563
3050.048	576
3053.291	575
3056.532	617
3059.771	618
3063.006	631
3066.239	669
3069.469	673
3072.697	694
3075.922	715
3079.144	742
3082.364	755
3085.581	767
3088.795	796
3092.007	804
3095.216	817
3098.423	832
3101.627	861
3104.828	884
3108.026	906
3111.222	929
3114.416	935
3117.607	966
3120.795	984
3123.98	1010
3127.163	1031
3130.344	1050
3133.521	1068
3136.696	1084
3139.869	1118
3143.039	1137
3146.206	1156
3149.371	1169
3152.533	1205
3155.693	1204
3158.85	1213
3162.005	1220
3165.157	1221
3168.306	1215
3171.453	1232
3174.597	1223
3177.739	1228
3180.878	1234
3184.014	1232
3187.149	1251
3190.28	1247
3193.409	1255
3196.536	1251
3199.659	1260
3202.781	1257
3205.9	1272
3209.016	1278
3212.13	1270
3215.241	1275
3218.35	1273
3221.456	1263
3224.56	1247
3227.661	1230
3230.76	1204
3233.856	1207
3236.95	1195
3240.041	1183
3243.13	1178
3246.216	1170
3249.3	1154
3252.382	1165
3255.46	1147
3258.537	1153
3261.611	1135
3264.682	1148
3267.751	1135
3270.818	1129
3273.882	1125
3276.943	1111
3280.002	1114
3283.059	1121
3286.113	1073
3289.165	1067
3292.214	1062
3295.261	1022
3298.306	1026
3301.348	1006
3304.387	990
3307.425	988
3310.459	954
3313.492	959
3316.521	949
3319.549	936
3322.574	922
3325.597	919
3328.617	916
3331.635	906
3334.65	896
3337.663	889
3340.674	888
3343.682	906
3346.688	886
3349.691	884
3352.692	869
3355.691	873
3358.687	861
3361.681	852
3364.673	850
3367.662	832
3370.649	829
3373.633	812
3376.615	813
3379.595	794
3382.572	779
3385.547	786
3388.52	771
3391.49	763
3394.458	748
3397.424	743
3400.387	737
3403.348	725
3406.307	722
3409.263	715
3412.217	699
3415.168	709
3418.118	671
3421.065	688
3424.009	681
3426.951	668
3429.891	661
3432.829	645
3435.764	631
3438.697	627
3441.628	605
3444.557	592
3447.483	581
3450.407	573
3453.328	553
3456.247	540
3459.164	531
3462.079	510
3464.991	498
3467.902	487
3470.809	462
3473.715	460
3476.618	449
3479.519	421
3482.418	422
3485.315	409
3488.209	400
3491.101	386
3493.99	374
3496.878	372
3499.763	362
3502.646	346
3505.527	336
3508.405	325
3511.281	316
3514.155	311
3517.027	283
3519.897	284
3522.764	271
3525.629	258
3528.492	246
3531.352	235
3534.211	219
3537.067	211
3539.921	195
3542.773	186
3545.622	173
3548.469	171
3551.315	161
3554.157	154
3556.998	149
3559.837	147
3562.673	140
3565.507	129
3568.339	118
3571.169	120
3573.996	115
3576.822	107
3579.645	95
3582.466	98
3585.285	88
3588.101	92
3590.916	80
3593.728	76
3596.538	69
3599.346	61
3602.152	58
3604.956	57
3607.757	41
3610.556	37
3613.354	36
3616.149	30
3618.942	29
3621.732	20
3624.521	23
3627.307	21
3630.092	26
3632.874	25
3635.654	16
3638.432	11
3641.208	11
3643.982	10
3646.753	3
3649.523	1
3652.29	-4
3655.055	-8
3657.818	-8
3660.579	-14
3663.338	-11
3666.095	-11
3668.849	-19
3671.602	-17
3674.352	-19
3677.101	-18
3679.847	-20
3682.591	-27
3685.333	-31
3688.073	-30
3690.811	-34
3693.547	-38
3696.281	-34
3699.013	-40
3701.742	-41
3704.47	-43
3707.195	-38
3709.919	-41
3712.64	-46
3715.359	-42
3718.076	-40
3720.792	-49
3723.505	-44
3726.216	-49
3728.925	-49
3731.632	-49
3734.336	-51
3737.039	-53
3739.74	-48
3742.439	-54
3745.136	-53
3747.83	-49
3750.523	-51
3753.213	-54
3755.902	-53
3758.589	-56
3761.273	-57
3763.956	-57
3766.636	-59
3769.315	-60
3771.991	-56
3774.665	-62
3777.338	-60
3780.008	-58
3782.677	-57
3785.343	-56
3788.007	-54
3790.67	-58
3793.33	-58
3795.989	-60
3798.645	-57
3801.299	-61
3803.952	-64
3806.602	-67
3809.251	-61
3811.897	-64
3814.542	-67
3817.184	-61
3819.825	-63
3822.463	-60
3825.1	-62
3827.735	-61
3830.367	-61
3832.998	-64
3835.627	-61
3838.253	-65
3840.878	-62
3843.501	-68
3846.122	-62
3848.741	-64
3851.358	-63
3853.973	-66
3856.586	-66
3859.197	-65
3861.806	-66
3864.414	-69
3867.019	-67
3869.622	-68
3872.224	-69
3874.823	-67
3877.421	-66
3880.016	-62
3882.61	-65
3885.202	-63
3887.792	-57
3890.38	-60
3892.966	-63
3895.55	-68
3898.132	-63
3900.713	-66
3903.291	-68
3905.868	-69
3908.442	-70
3911.015	-71
3913.586	-72
3916.155	-74
3918.722	-66
3921.287	-69
3923.85	-69
3926.411	-69
3928.971	-69
3931.528	-71
3934.084	-68
3936.638	-71
3939.19	-67
3941.74	-68
3944.288	-72
3946.834	-72
3949.378	-73
3951.921	-69
3954.462	-74
3957	-72
3959.537	-69
3962.072	-70
3964.606	-65
3967.137	-64
3969.667	-67
3972.194	-69
3974.72	-68
3977.244	-70
3979.766	-68
3982.286	-70
3984.805	-68
3987.321	-69
3989.836	-68
3992.349	-72
3994.86	-75
3997.369	-72
3999.877	-67
4002.382	-70
4004.886	-65
4007.388	-63
4009.888	-65
4012.386	-67
4014.883	-67
4017.377	-68
4019.87	-69
4022.361	-69
4024.85	-72
4027.338	-70
4029.823	-70
4032.307	-69
4034.789	-71
4037.269	-68
4039.747	-71
4042.224	-69
4044.699	-72
4047.172	-66
4049.643	-68
4052.112	-67
4054.58	-71
4057.046	-68
4059.51	-71
4061.972	-69
4064.432	-69
4066.891	-71
4069.348	-71
4071.803	-66
4074.256	-68
4076.708	-69
4079.158	-74
4081.606	-69
4084.052	-70
4086.497	-68
4088.939	-67
4091.38	-70
4093.819	-69
4096.257	-74
4098.693	-72
4101.127	-71
4103.559	-70
4105.989	-17
4108.418	-13
4110.845	-14
4113.27	-13
4115.694	-12
4118.115	-5
4120.535	-71
4122.954	-72
4125.37	-65
4127.785	-69
4130.198	-67
4132.609	-70
4135.019	-72
4137.427	-73
4139.833	-74
4142.237	-75
