Data from 10000000CFU1_C_ramanshift_RamanShift_15-33-37-502.txt Node
Date: Sun Dec 25 15:33:37 IST 2016
User: aro
Spectrometer: QEPB0276
Trigger mode: 0
Integration Time (sec): 5.000000E0
Scans to average: 1
Electric dark correction enabled: true
Nonlinearity correction enabled: false
Boxcar width: 0
XAxis mode: Raman Shifts
Number of Pixels in Spectrum: 1044
>>>>>Begin Spectral Data<<<<<
160.701	4
166.742	16
172.777	65
178.805	207
184.826	592
190.841	1437
196.849	2667
202.85	3810
208.845	4384
214.833	4422
220.815	4229
226.789	4085
232.758	3949
238.719	3870
244.674	3730
250.623	3556
256.565	3441
262.5	3261
268.429	3082
274.351	2972
280.267	2835
286.176	2735
292.079	2641
297.975	2526
303.865	2441
309.748	2358
315.625	2305
321.495	2266
327.359	2185
333.217	2170
339.068	2161
344.912	2125
350.751	2098
356.583	2086
362.408	2102
368.227	2097
374.04	2100
379.847	2087
385.647	2118
391.44	2116
397.228	2119
403.009	2171
408.784	2166
414.553	2189
420.315	2182
426.071	2183
431.821	2173
437.565	2184
443.302	2193
449.033	2167
454.758	2185
460.477	2162
466.189	2159
471.896	2141
477.596	2142
483.29	2137
488.978	2115
494.66	2116
500.335	2100
506.005	2071
511.668	2029
517.325	1999
522.977	1979
528.622	1942
534.261	1939
539.894	1894
545.521	1892
551.141	1875
556.756	1869
562.365	1859
567.968	1839
573.565	1825
579.155	1814
584.74	1795
590.319	1801
595.892	1782
601.459	1772
607.02	1771
612.575	1753
618.124	1732
623.667	1721
629.204	1704
634.735	1678
640.261	1697
645.781	1668
651.294	1666
656.802	1662
662.304	1653
667.8	1618
673.29	1642
678.775	1624
684.254	1611
689.726	1621
695.193	1607
700.655	1599
706.11	1588
711.56	1573
717.004	1570
722.442	1562
727.874	1549
733.301	1538
738.722	1544
744.137	1514
749.547	1528
754.951	1519
760.349	1520
765.741	1510
771.128	1515
776.509	1512
781.885	1533
787.254	1521
792.618	1515
797.977	1496
803.33	1496
808.677	1488
814.019	1461
819.355	1454
824.686	1435
830.011	1430
835.33	1409
840.644	1405
845.952	1415
851.255	1409
856.552	1391
861.844	1378
867.13	1377
872.41	1375
877.686	1367
882.955	1351
888.219	1332
893.478	1326
898.731	1295
903.979	1291
909.221	1263
914.458	1264
919.69	1250
924.916	1242
930.136	1238
935.351	1247
940.561	1249
945.766	1232
950.965	1236
956.158	1214
961.347	1204
966.529	1188
971.707	1182
976.879	1176
982.046	1146
987.208	1153
992.364	1141
997.515	1148
1002.66	1138
1007.801	1146
1012.936	1172
1018.066	1181
1023.19	1182
1028.309	1195
1033.423	1182
1038.532	1191
1043.636	1173
1048.734	1171
1053.827	1158
1058.915	1139
1063.998	1132
1069.075	1134
1074.147	1128
1079.214	1123
1084.276	1138
1089.333	1149
1094.385	1165
1099.431	1170
1104.472	1177
1109.509	1156
1114.54	1162
1119.565	1158
1124.586	1142
1129.602	1125
1134.613	1118
1139.618	1109
1144.619	1119
1149.614	1091
1154.604	1108
1159.589	1115
1164.57	1136
1169.545	1127
1174.515	1135
1179.48	1138
1184.44	1122
1189.395	1123
1194.345	1108
1199.29	1108
1204.23	1115
1209.165	1111
1214.095	1123
1219.021	1118
1223.941	1140
1228.856	1146
1233.766	1142
1238.672	1146
1243.572	1153
1248.467	1134
1253.358	1133
1258.244	1128
1263.124	1112
1268	1100
1272.871	1061
1277.737	1061
1282.599	1052
1287.455	1077
1292.306	1065
1297.153	1069
1301.995	1081
1306.832	1097
1311.664	1091
1316.491	1093
1321.314	1086
1326.132	1108
1330.945	1086
1335.753	1070
1340.556	1068
1345.354	1052
1350.148	1040
1354.937	1036
1359.722	1033
1364.501	1022
1369.276	1011
1374.046	1004
1378.811	983
1383.572	987
1388.327	996
1393.079	983
1397.825	980
1402.567	992
1407.304	969
1412.036	976
1416.764	962
1421.487	956
1426.205	968
1430.919	982
1435.628	988
1440.333	984
1445.032	998
1449.727	1006
1454.418	1028
1459.104	1021
1463.785	1007
1468.462	1016
1473.134	1007
1477.802	985
1482.465	1000
1487.123	976
1491.777	983
1496.426	984
1501.071	993
1505.711	990
1510.347	997
1514.978	1019
1519.604	1016
1524.226	1039
1528.844	1038
1533.457	1021
1538.065	1027
1542.669	1022
1547.269	1022
1551.864	1020
1556.454	1036
1561.041	1043
1565.622	1050
1570.199	1060
1574.772	1077
1579.34	1098
1583.904	1108
1588.464	1115
1593.019	1144
1597.569	1166
1602.115	1167
1606.657	1179
1611.195	1189
1615.728	1183
1620.256	1209
1624.78	1222
1629.3	1246
1633.816	1248
1638.327	1283
1642.834	1273
1647.336	1298
1651.834	1304
1656.328	1320
1660.817	1304
1665.302	1296
1669.783	1276
1674.259	1252
1678.732	1205
1683.199	1175
1687.663	1136
1692.122	1103
1696.577	1064
1701.028	1031
1705.474	985
1709.917	948
1714.355	928
1718.788	917
1723.218	901
1727.643	878
1732.064	859
1736.481	842
1740.893	821
1745.301	805
1749.705	786
1754.105	766
1758.501	736
1762.893	741
1767.28	725
1771.663	709
1776.042	712
1780.417	700
1784.787	698
1789.154	713
1793.516	712
1797.874	717
1802.228	706
1806.578	686
1810.924	678
1815.266	673
1819.603	667
1823.937	650
1828.266	648
1832.591	638
1836.913	636
1841.23	630
1845.543	634
1849.852	630
1854.156	640
1858.457	633
1862.754	639
1867.047	645
1871.335	663
1875.62	641
1879.9	658
1884.177	652
1888.449	650
1892.718	648
1896.982	646
1901.243	641
1905.499	645
1909.752	637
1914	647
1918.245	629
1922.485	633
1926.722	639
1930.954	644
1935.183	654
1939.408	655
1943.628	645
1947.845	647
1952.058	653
1956.267	647
1960.472	636
1964.673	639
1968.87	623
1973.063	626
1977.252	621
1981.438	612
1985.619	613
1989.797	609
1993.971	617
1998.14	610
2002.306	610
2006.469	626
2010.627	619
2014.781	621
2018.932	632
2023.078	629
2027.221	623
2031.36	614
2035.495	615
2039.627	609
2043.754	603
2047.878	618
2051.998	602
2056.114	603
2060.226	607
2064.334	612
2068.439	612
2072.54	617
2076.637	618
2080.73	620
2084.82	617
2088.906	623
2092.988	629
2097.066	612
2101.14	637
2105.211	617
2109.278	624
2113.342	622
2117.401	607
2121.457	601
2125.509	615
2129.558	602
2133.602	597
2137.643	599
2141.681	605
2145.714	592
2149.744	597
2153.77	577
2157.793	599
2161.812	597
2165.827	576
2169.838	570
2173.846	558
2177.851	553
2181.851	555
2185.848	541
2189.841	529
2193.831	525
2197.817	524
2201.799	530
2205.778	523
2209.753	521
2213.725	529
2217.693	515
2221.657	521
2225.618	512
2229.575	518
2233.529	513
2237.479	506
2241.425	514
2245.368	506
2249.307	489
2253.243	489
2257.175	487
2261.104	482
2265.029	475
2268.95	471
2272.868	464
2276.783	455
2280.694	450
2284.601	446
2288.505	436
2292.405	440
2296.302	438
2300.195	423
2304.085	413
2307.971	416
2311.854	410
2315.734	406
2319.609	405
2323.482	399
2327.351	384
2331.216	389
2335.078	394
2338.937	375
2342.792	383
2346.643	373
2350.492	379
2354.336	371
2358.178	378
2362.015	383
2365.85	368
2369.681	379
2373.508	370
2377.333	377
2381.153	371
2384.971	372
2388.785	375
2392.595	365
2396.402	372
2400.206	365
2404.007	363
2407.804	362
2411.597	372
2415.388	363
2419.174	362
2422.958	360
2426.738	356
2430.515	354
2434.289	355
2438.059	348
2441.825	348
2445.589	349
2449.349	350
2453.106	344
2456.859	345
2460.61	341
2464.356	336
2468.1	333
2471.84	329
2475.577	332
2479.311	333
2483.041	327
2486.768	340
2490.492	336
2494.213	334
2497.93	326
2501.644	332
2505.355	327
2509.062	338
2512.766	324
2516.467	329
2520.165	323
2523.859	317
2527.551	315
2531.239	313
2534.923	313
2538.605	310
2542.283	314
2545.958	309
2549.63	303
2553.299	305
2556.964	298
2560.626	305
2564.285	303
2567.941	298
2571.594	296
2575.243	298
2578.89	289
2582.533	298
2586.173	292
2589.809	286
2593.443	282
2597.073	277
2600.701	280
2604.325	276
2607.946	281
2611.564	274
2615.178	275
2618.79	281
2622.398	281
2626.004	265
2629.606	275
2633.205	263
2636.801	266
2640.394	256
2643.983	269
2647.57	256
2651.153	265
2654.734	258
2658.311	249
2661.885	247
2665.456	254
2669.025	248
2672.589	253
2676.151	243
2679.71	243
2683.266	246
2686.819	235
2690.368	236
2693.915	231
2697.458	235
2700.999	225
2704.536	222
2708.071	228
2711.602	233
2715.13	227
2718.656	224
2722.178	220
2725.697	220
2729.214	220
2732.727	219
2736.237	235
2739.744	228
2743.249	228
2746.75	225
2750.248	225
2753.743	229
2757.236	227
2760.725	229
2764.211	226
2767.695	220
2771.175	220
2774.652	217
2778.127	213
2781.598	215
2785.067	211
2788.532	212
2791.995	221
2795.455	215
2798.911	219
2802.365	214
2805.816	219
2809.264	217
2812.709	226
2816.151	218
2819.59	216
2823.026	217
2826.46	226
2829.89	224
2833.318	234
2836.742	230
2840.164	225
2843.583	224
2846.999	222
2850.412	231
2853.822	238
2857.229	237
2860.634	244
2864.035	236
2867.434	239
2870.83	241
2874.223	247
2877.613	254
2881	255
2884.385	262
2887.766	263
2891.145	255
2894.521	253
2897.894	255
2901.264	260
2904.631	258
2907.996	267
2911.358	261
2914.717	265
2918.073	268
2921.426	274
2924.777	274
2928.124	285
2931.469	284
2934.811	289
2938.15	307
2941.487	292
2944.821	308
2948.152	311
2951.48	315
2954.805	317
2958.128	329
2961.447	324
2964.765	332
2968.079	337
2971.39	351
2974.699	352
2978.005	359
2981.308	363
2984.609	375
2987.907	368
2991.202	390
2994.494	401
2997.784	423
3001.07	429
3004.355	433
3007.636	442
3010.915	455
3014.191	461
3017.464	465
3020.734	478
3024.002	479
3027.267	487
3030.53	507
3033.789	496
3037.046	513
3040.301	526
3043.552	535
3046.801	547
3050.048	570
3053.291	586
3056.532	604
3059.771	618
3063.006	628
3066.239	654
3069.469	680
3072.697	690
3075.922	704
3079.144	719
3082.364	749
3085.581	762
3088.795	770
3092.007	809
3095.216	820
3098.423	827
3101.627	843
3104.828	860
3108.026	877
3111.222	916
3114.416	925
3117.607	942
3120.795	956
3123.98	985
3127.163	1008
3130.344	1040
3133.521	1064
3136.696	1086
3139.869	1099
3143.039	1108
3146.206	1130
3149.371	1151
3152.533	1156
3155.693	1162
3158.85	1170
3162.005	1172
3165.157	1183
3168.306	1190
3171.453	1193
3174.597	1220
3177.739	1211
3180.878	1207
3184.014	1202
3187.149	1215
3190.28	1208
3193.409	1215
3196.536	1218
3199.659	1229
3202.781	1231
3205.9	1224
3209.016	1228
3212.13	1226
3215.241	1216
3218.35	1198
3221.456	1214
3224.56	1202
3227.661	1182
3230.76	1162
3233.856	1151
3236.95	1151
3240.041	1146
3243.13	1107
3246.216	1112
3249.3	1106
3252.382	1107
3255.46	1084
3258.537	1070
3261.611	1074
3264.682	1084
3267.751	1068
3270.818	1059
3273.882	1073
3276.943	1063
3280.002	1054
3283.059	1045
3286.113	1029
3289.165	1002
3292.214	999
3295.261	993
3298.306	975
3301.348	951
3304.387	936
3307.425	940
3310.459	926
3313.492	910
3316.521	895
3319.549	892
3322.574	881
3325.597	879
3328.617	871
3331.635	867
3334.65	852
3337.663	847
3340.674	845
3343.682	847
3346.688	833
3349.691	848
3352.692	831
3355.691	823
3358.687	818
3361.681	820
3364.673	806
3367.662	796
3370.649	788
3373.633	785
3376.615	773
3379.595	760
3382.572	743
3385.547	718
3388.52	720
3391.49	713
3394.458	707
3397.424	690
3400.387	695
3403.348	678
3406.307	682
3409.263	662
3412.217	662
3415.168	652
3418.118	638
3421.065	635
3424.009	629
3426.951	628
3429.891	621
3432.829	609
3435.764	594
3438.697	584
3441.628	564
3444.557	558
3447.483	549
3450.407	533
3453.328	509
3456.247	492
3459.164	484
3462.079	469
3464.991	457
3467.902	443
3470.809	425
3473.715	423
3476.618	407
3479.519	401
3482.418	381
3485.315	386
3488.209	372
3491.101	355
3493.99	348
3496.878	332
3499.763	330
3502.646	325
3505.527	313
3508.405	295
3511.281	287
3514.155	271
3517.027	253
3519.897	259
3522.764	245
3525.629	234
3528.492	221
3531.352	213
3534.211	203
3537.067	185
3539.921	177
3542.773	175
3545.622	162
3548.469	152
3551.315	148
3554.157	137
3556.998	130
3559.837	128
3562.673	115
3565.507	116
3568.339	107
3571.169	105
3573.996	94
3576.822	93
3579.645	85
3582.466	81
3585.285	73
3588.101	70
3590.916	64
3593.728	55
3596.538	56
3599.346	57
3602.152	42
3604.956	44
3607.757	43
3610.556	35
3613.354	31
3616.149	27
3618.942	25
3621.732	22
3624.521	18
3627.307	17
3630.092	14
3632.874	12
3635.654	4
3638.432	2
3641.208	4
3643.982	-2
3646.753	-4
3649.523	2
3652.29	-3
3655.055	-9
3657.818	-11
3660.579	-10
3663.338	-17
3666.095	-16
3668.849	-21
3671.602	-20
3674.352	-28
3677.101	-26
3679.847	-30
3682.591	-32
3685.333	-32
3688.073	-31
3690.811	-36
3693.547	-34
3696.281	-35
3699.013	-38
3701.742	-38
3704.47	-41
3707.195	-40
3709.919	-43
3712.64	-46
3715.359	-43
3718.076	-46
3720.792	-48
3723.505	-44
3726.216	-52
3728.925	-51
3731.632	-52
3734.336	-47
3737.039	-53
3739.74	-50
3742.439	-48
3745.136	-51
3747.83	-50
3750.523	-56
3753.213	-55
3755.902	-58
3758.589	-54
3761.273	-54
3763.956	-56
3766.636	-52
3769.315	-53
3771.991	-61
3774.665	-63
3777.338	-58
3780.008	-59
3782.677	-55
3785.343	-55
3788.007	-61
3790.67	-62
3793.33	-58
3795.989	-62
3798.645	-61
3801.299	-61
3803.952	-58
3806.602	-62
3809.251	-60
3811.897	-62
3814.542	-64
3817.184	-59
3819.825	-66
3822.463	-63
3825.1	-65
3827.735	-60
3830.367	-67
3832.998	-64
3835.627	-62
3838.253	-64
3840.878	-65
3843.501	-68
3846.122	-68
3848.741	-69
3851.358	-69
3853.973	-64
3856.586	-62
3859.197	-65
3861.806	-66
3864.414	-68
3867.019	-70
3869.622	-65
3872.224	-66
3874.823	-66
3877.421	-62
3880.016	-65
3882.61	-63
3885.202	-62
3887.792	-64
3890.38	-66
3892.966	-67
3895.55	-69
3898.132	-66
3900.713	-68
3903.291	-70
3905.868	-66
3908.442	-68
3911.015	-72
3913.586	-71
3916.155	-67
3918.722	-71
3921.287	-67
3923.85	-70
3926.411	-69
3928.971	-68
3931.528	-70
3934.084	-73
3936.638	-74
3939.19	-69
3941.74	-70
3944.288	-73
3946.834	-69
3949.378	-67
3951.921	-68
3954.462	-69
3957	-71
3959.537	-72
3962.072	-72
3964.606	-70
3967.137	-71
3969.667	-69
3972.194	-69
3974.72	-71
3977.244	-70
3979.766	-71
3982.286	-70
3984.805	-73
3987.321	-70
3989.836	-69
3992.349	-67
3994.86	-65
3997.369	-61
3999.877	-72
4002.382	-73
4004.886	-69
4007.388	-71
4009.888	-67
4012.386	-65
4014.883	-68
4017.377	-69
4019.87	-69
4022.361	-68
4024.85	-71
4027.338	-70
4029.823	-65
4032.307	-65
4034.789	-64
4037.269	-70
4039.747	-69
4042.224	-73
4044.699	-70
4047.172	-72
4049.643	-69
4052.112	-70
4054.58	-71
4057.046	-70
4059.51	-71
4061.972	-64
4064.432	-67
4066.891	-71
4069.348	-73
4071.803	-71
4074.256	-71
4076.708	-72
4079.158	-68
4081.606	-66
4084.052	-68
4086.497	-73
4088.939	-69
4091.38	-74
4093.819	-72
4096.257	-72
4098.693	-71
4101.127	-74
4103.559	-75
4105.989	-25
4108.418	-21
4110.845	-18
4113.27	-16
4115.694	-10
4118.115	-10
4120.535	-72
4122.954	-67
4125.37	-68
4127.785	-70
4130.198	-70
4132.609	-72
4135.019	-76
4137.427	-74
4139.833	-72
4142.237	-70
