Data from 10000000CFU3_B_ramanshift_RamanShift_15-09-17-642.txt Node
Date: Sun Dec 25 15:09:17 IST 2016
User: aro
Spectrometer: QEPB0276
Trigger mode: 0
Integration Time (sec): 5.000000E0
Scans to average: 1
Electric dark correction enabled: true
Nonlinearity correction enabled: false
Boxcar width: 0
XAxis mode: Raman Shifts
Number of Pixels in Spectrum: 1044
>>>>>Begin Spectral Data<<<<<
160.701	6
166.742	18
172.777	64
178.805	199
184.826	593
190.841	1431
196.849	2609
202.85	3749
208.845	4355
214.833	4334
220.815	4194
226.789	4042
232.758	3959
238.719	3825
244.674	3742
250.623	3573
256.565	3416
262.5	3269
268.429	3140
274.351	2999
280.267	2895
286.176	2783
292.079	2712
297.975	2604
303.865	2504
309.748	2446
315.625	2372
321.495	2340
327.359	2286
333.217	2261
339.068	2227
344.912	2216
350.751	2182
356.583	2168
362.408	2176
368.227	2181
374.04	2180
379.847	2186
385.647	2203
391.44	2224
397.228	2230
403.009	2233
408.784	2259
414.553	2278
420.315	2281
426.071	2288
431.821	2287
437.565	2284
443.302	2279
449.033	2289
454.758	2273
460.477	2272
466.189	2278
471.896	2240
477.596	2239
483.29	2231
488.978	2208
494.66	2237
500.335	2198
506.005	2161
511.668	2139
517.325	2102
522.977	2091
528.622	2033
534.261	2035
539.894	2003
545.521	1984
551.141	1972
556.756	1965
562.365	1964
567.968	1967
573.565	1948
579.155	1930
584.74	1905
590.319	1898
595.892	1901
601.459	1878
607.02	1883
612.575	1857
618.124	1838
623.667	1841
629.204	1827
634.735	1819
640.261	1801
645.781	1775
651.294	1773
656.802	1780
662.304	1768
667.8	1750
673.29	1753
678.775	1748
684.254	1738
689.726	1741
695.193	1723
700.655	1716
706.11	1714
711.56	1715
717.004	1697
722.442	1677
727.874	1669
733.301	1659
738.722	1648
744.137	1640
749.547	1645
754.951	1656
760.349	1655
765.741	1633
771.128	1637
776.509	1629
781.885	1654
787.254	1659
792.618	1640
797.977	1646
803.33	1618
808.677	1604
814.019	1612
819.355	1584
824.686	1583
830.011	1546
835.33	1565
840.644	1548
845.952	1555
851.255	1551
856.552	1547
861.844	1548
867.13	1547
872.41	1570
877.686	1604
882.955	1634
888.219	1648
893.478	1605
898.731	1524
903.979	1464
909.221	1427
914.458	1419
919.69	1383
924.916	1393
930.136	1402
935.351	1391
940.561	1399
945.766	1395
950.965	1379
956.158	1375
961.347	1354
966.529	1343
971.707	1344
976.879	1325
982.046	1319
987.208	1297
992.364	1285
997.515	1290
1002.66	1289
1007.801	1303
1012.936	1323
1018.066	1334
1023.19	1340
1028.309	1358
1033.423	1346
1038.532	1371
1043.636	1346
1048.734	1381
1053.827	1368
1058.915	1338
1063.998	1331
1069.075	1327
1074.147	1322
1079.214	1335
1084.276	1326
1089.333	1361
1094.385	1363
1099.431	1375
1104.472	1361
1109.509	1338
1114.54	1329
1119.565	1326
1124.586	1301
1129.602	1302
1134.613	1268
1139.618	1269
1144.619	1264
1149.614	1258
1154.604	1272
1159.589	1266
1164.57	1285
1169.545	1280
1174.515	1289
1179.48	1294
1184.44	1276
1189.395	1271
1194.345	1279
1199.29	1249
1204.23	1240
1209.165	1255
1214.095	1272
1219.021	1261
1223.941	1292
1228.856	1315
1233.766	1315
1238.672	1316
1243.572	1311
1248.467	1310
1253.358	1309
1258.244	1291
1263.124	1282
1268	1257
1272.871	1236
1277.737	1231
1282.599	1235
1287.455	1242
1292.306	1241
1297.153	1253
1301.995	1244
1306.832	1250
1311.664	1244
1316.491	1267
1321.314	1269
1326.132	1251
1330.945	1246
1335.753	1224
1340.556	1217
1345.354	1210
1350.148	1179
1354.937	1180
1359.722	1174
1364.501	1170
1369.276	1149
1374.046	1136
1378.811	1126
1383.572	1135
1388.327	1137
1393.079	1126
1397.825	1130
1402.567	1126
1407.304	1109
1412.036	1111
1416.764	1127
1421.487	1107
1426.205	1107
1430.919	1133
1435.628	1144
1440.333	1136
1445.032	1162
1449.727	1188
1454.418	1197
1459.104	1217
1463.785	1226
1468.462	1210
1473.134	1178
1477.802	1155
1482.465	1146
1487.123	1131
1491.777	1120
1496.426	1125
1501.071	1124
1505.711	1138
1510.347	1141
1514.978	1153
1519.604	1171
1524.226	1152
1528.844	1174
1533.457	1164
1538.065	1155
1542.669	1157
1547.269	1145
1551.864	1136
1556.454	1134
1561.041	1162
1565.622	1165
1570.199	1170
1574.772	1197
1579.34	1201
1583.904	1224
1588.464	1253
1593.019	1263
1597.569	1272
1602.115	1296
1606.657	1290
1611.195	1310
1615.728	1303
1620.256	1314
1624.78	1315
1629.3	1344
1633.816	1374
1638.327	1380
1642.834	1402
1647.336	1419
1651.834	1430
1656.328	1399
1660.817	1416
1665.302	1404
1669.783	1371
1674.259	1345
1678.732	1315
1683.199	1284
1687.663	1264
1692.122	1226
1696.577	1194
1701.028	1126
1705.474	1078
1709.917	1044
1714.355	1018
1718.788	1015
1723.218	998
1727.643	1004
1732.064	983
1736.481	950
1740.893	936
1745.301	916
1749.705	899
1754.105	861
1758.501	857
1762.893	848
1767.28	833
1771.663	817
1776.042	828
1780.417	808
1784.787	803
1789.154	814
1793.516	817
1797.874	813
1802.228	808
1806.578	805
1810.924	790
1815.266	782
1819.603	767
1823.937	754
1828.266	754
1832.591	743
1836.913	741
1841.23	751
1845.543	748
1849.852	740
1854.156	748
1858.457	749
1862.754	746
1867.047	751
1871.335	747
1875.62	747
1879.9	774
1884.177	763
1888.449	764
1892.718	748
1896.982	740
1901.243	750
1905.499	739
1909.752	758
1914	754
1918.245	752
1922.485	745
1926.722	738
1930.954	737
1935.183	744
1939.408	760
1943.628	756
1947.845	751
1952.058	759
1956.267	744
1960.472	743
1964.673	736
1968.87	722
1973.063	712
1977.252	719
1981.438	709
1985.619	706
1989.797	720
1993.971	711
1998.14	710
2002.306	709
2006.469	722
2010.627	723
2014.781	706
2018.932	723
2023.078	725
2027.221	722
2031.36	716
2035.495	717
2039.627	713
2043.754	701
2047.878	694
2051.998	703
2056.114	687
2060.226	688
2064.334	710
2068.439	705
2072.54	707
2076.637	712
2080.73	712
2084.82	707
2088.906	712
2092.988	725
2097.066	718
2101.14	703
2105.211	700
2109.278	704
2113.342	701
2117.401	690
2121.457	680
2125.509	693
2129.558	679
2133.602	684
2137.643	687
2141.681	684
2145.714	676
2149.744	680
2153.77	670
2157.793	673
2161.812	670
2165.827	658
2169.838	647
2173.846	642
2177.851	618
2181.851	632
2185.848	620
2189.841	615
2193.831	619
2197.817	608
2201.799	597
2205.778	599
2209.753	605
2213.725	605
2217.693	602
2221.657	604
2225.618	607
2229.575	594
2233.529	612
2237.479	585
2241.425	598
2245.368	590
2249.307	578
2253.243	565
2257.175	553
2261.104	560
2265.029	540
2268.95	535
2272.868	530
2276.783	535
2280.694	527
2284.601	517
2288.505	516
2292.405	518
2296.302	515
2300.195	501
2304.085	498
2307.971	487
2311.854	476
2315.734	477
2319.609	467
2323.482	468
2327.351	460
2331.216	461
2335.078	454
2338.937	455
2342.792	441
2346.643	442
2350.492	449
2354.336	460
2358.178	451
2362.015	452
2365.85	442
2369.681	449
2373.508	457
2377.333	448
2381.153	445
2384.971	463
2388.785	442
2392.595	437
2396.402	442
2400.206	446
2404.007	438
2407.804	423
2411.597	434
2415.388	423
2419.174	430
2422.958	432
2426.738	428
2430.515	417
2434.289	423
2438.059	420
2441.825	415
2445.589	421
2449.349	407
2453.106	410
2456.859	415
2460.61	415
2464.356	405
2468.1	407
2471.84	392
2475.577	395
2479.311	398
2483.041	386
2486.768	398
2490.492	391
2494.213	389
2497.93	392
2501.644	402
2505.355	393
2509.062	393
2512.766	391
2516.467	390
2520.165	391
2523.859	385
2527.551	383
2531.239	372
2534.923	381
2538.605	368
2542.283	375
2545.958	365
2549.63	372
2553.299	362
2556.964	358
2560.626	362
2564.285	355
2567.941	364
2571.594	356
2575.243	356
2578.89	348
2582.533	355
2586.173	340
2589.809	344
2593.443	350
2597.073	343
2600.701	341
2604.325	333
2607.946	329
2611.564	329
2615.178	340
2618.79	334
2622.398	326
2626.004	325
2629.606	332
2633.205	324
2636.801	320
2640.394	320
2643.983	324
2647.57	308
2651.153	314
2654.734	310
2658.311	302
2661.885	295
2665.456	305
2669.025	296
2672.589	295
2676.151	294
2679.71	298
2683.266	301
2686.819	288
2690.368	281
2693.915	289
2697.458	280
2700.999	278
2704.536	285
2708.071	286
2711.602	276
2715.13	272
2718.656	275
2722.178	279
2725.697	276
2729.214	271
2732.727	266
2736.237	278
2739.744	283
2743.249	283
2746.75	278
2750.248	271
2753.743	281
2757.236	270
2760.725	271
2764.211	270
2767.695	267
2771.175	263
2774.652	265
2778.127	259
2781.598	266
2785.067	258
2788.532	257
2791.995	264
2795.455	260
2798.911	264
2802.365	257
2805.816	271
2809.264	265
2812.709	268
2816.151	263
2819.59	261
2823.026	262
2826.46	274
2829.89	272
2833.318	277
2836.742	273
2840.164	268
2843.583	277
2846.999	276
2850.412	278
2853.822	287
2857.229	285
2860.634	291
2864.035	286
2867.434	297
2870.83	296
2874.223	309
2877.613	307
2881	315
2884.385	316
2887.766	329
2891.145	327
2894.521	332
2897.894	323
2901.264	330
2904.631	326
2907.996	336
2911.358	323
2914.717	325
2918.073	330
2921.426	339
2924.777	346
2928.124	347
2931.469	365
2934.811	371
2938.15	372
2941.487	387
2944.821	393
2948.152	383
2951.48	385
2954.805	384
2958.128	379
2961.447	376
2964.765	382
2968.079	373
2971.39	392
2974.699	389
2978.005	404
2981.308	409
2984.609	411
2987.907	420
2991.202	433
2994.494	439
2997.784	446
3001.07	457
3004.355	461
3007.636	471
3010.915	474
3014.191	481
3017.464	492
3020.734	493
3024.002	501
3027.267	499
3030.53	506
3033.789	512
3037.046	528
3040.301	544
3043.552	552
3046.801	563
3050.048	573
3053.291	580
3056.532	592
3059.771	621
3063.006	646
3066.239	642
3069.469	669
3072.697	676
3075.922	706
3079.144	714
3082.364	725
3085.581	740
3088.795	770
3092.007	780
3095.216	791
3098.423	806
3101.627	826
3104.828	844
3108.026	866
3111.222	878
3114.416	902
3117.607	917
3120.795	947
3123.98	948
3127.163	965
3130.344	998
3133.521	1010
3136.696	1038
3139.869	1048
3143.039	1068
3146.206	1102
3149.371	1114
3152.533	1111
3155.693	1141
3158.85	1127
3162.005	1144
3165.157	1142
3168.306	1150
3171.453	1157
3174.597	1162
3177.739	1156
3180.878	1163
3184.014	1157
3187.149	1166
3190.28	1176
3193.409	1162
3196.536	1171
3199.659	1176
3202.781	1187
3205.9	1193
3209.016	1183
3212.13	1183
3215.241	1170
3218.35	1164
3221.456	1138
3224.56	1149
3227.661	1134
3230.76	1134
3233.856	1112
3236.95	1094
3240.041	1090
3243.13	1077
3246.216	1067
3249.3	1064
3252.382	1055
3255.46	1038
3258.537	1034
3261.611	1036
3264.682	1025
3267.751	1029
3270.818	1015
3273.882	1017
3276.943	1003
3280.002	1015
3283.059	990
3286.113	986
3289.165	966
3292.214	956
3295.261	953
3298.306	924
3301.348	930
3304.387	910
3307.425	894
3310.459	868
3313.492	871
3316.521	847
3319.549	847
3322.574	836
3325.597	840
3328.617	828
3331.635	825
3334.65	817
3337.663	808
3340.674	806
3343.682	799
3346.688	802
3349.691	798
3352.692	793
3355.691	792
3358.687	788
3361.681	786
3364.673	772
3367.662	759
3370.649	752
3373.633	739
3376.615	729
3379.595	710
3382.572	716
3385.547	695
3388.52	699
3391.49	691
3394.458	682
3397.424	659
3400.387	650
3403.348	650
3406.307	637
3409.263	646
3412.217	634
3415.168	620
3418.118	621
3421.065	601
3424.009	610
3426.951	593
3429.891	584
3432.829	566
3435.764	561
3438.697	564
3441.628	548
3444.557	518
3447.483	521
3450.407	498
3453.328	497
3456.247	476
3459.164	469
3462.079	444
3464.991	440
3467.902	422
3470.809	407
3473.715	393
3476.618	386
3479.519	382
3482.418	367
3485.315	360
3488.209	350
3491.101	344
3493.99	329
3496.878	316
3499.763	313
3502.646	304
3505.527	300
3508.405	283
3511.281	268
3514.155	260
3517.027	251
3519.897	241
3522.764	228
3525.629	217
3528.492	213
3531.352	202
3534.211	191
3537.067	186
3539.921	171
3542.773	171
3545.622	161
3548.469	142
3551.315	146
3554.157	125
3556.998	122
3559.837	116
3562.673	115
3565.507	110
3568.339	103
3571.169	106
3573.996	85
3576.822	88
3579.645	81
3582.466	73
3585.285	71
3588.101	70
3590.916	61
3593.728	57
3596.538	54
3599.346	44
3602.152	45
3604.956	39
3607.757	43
3610.556	39
3613.354	34
3616.149	27
3618.942	26
3621.732	19
3624.521	19
3627.307	12
3630.092	14
3632.874	14
3635.654	7
3638.432	4
3641.208	3
3643.982	3
3646.753	-2
3649.523	-3
3652.29	-9
3655.055	-9
3657.818	-7
3660.579	-13
3663.338	-13
3666.095	-13
3668.849	-22
3671.602	-22
3674.352	-29
3677.101	-26
3679.847	-26
3682.591	-29
3685.333	-29
3688.073	-29
3690.811	-32
3693.547	-35
3696.281	-37
3699.013	-43
3701.742	-39
3704.47	-40
3707.195	-36
3709.919	-38
3712.64	-46
3715.359	-40
3718.076	-47
3720.792	-47
3723.505	-43
3726.216	-47
3728.925	-49
3731.632	-50
3734.336	-48
3737.039	-50
3739.74	-46
3742.439	-48
3745.136	-49
3747.83	-54
3750.523	-56
3753.213	-51
3755.902	-56
3758.589	-53
3761.273	-55
3763.956	-57
3766.636	-55
3769.315	-59
3771.991	-58
3774.665	-55
3777.338	-57
3780.008	-55
3782.677	-55
3785.343	-54
3788.007	-60
3790.67	-58
3793.33	-62
3795.989	-61
3798.645	-57
3801.299	-57
3803.952	-59
3806.602	-59
3809.251	-61
3811.897	-63
3814.542	-66
3817.184	-59
3819.825	-59
3822.463	-61
3825.1	-65
3827.735	-61
3830.367	-67
3832.998	-62
3835.627	-64
3838.253	-64
3840.878	-65
3843.501	-64
3846.122	-60
3848.741	-68
3851.358	-65
3853.973	-64
3856.586	-64
3859.197	-66
3861.806	-65
3864.414	-67
3867.019	-66
3869.622	-62
3872.224	-61
3874.823	-66
3877.421	-65
3880.016	-66
3882.61	-65
3885.202	-61
3887.792	-60
3890.38	-61
3892.966	-60
3895.55	-67
3898.132	-69
3900.713	-70
3903.291	-72
3905.868	-67
3908.442	-65
3911.015	-68
3913.586	-65
3916.155	-65
3918.722	-69
3921.287	-67
3923.85	-67
3926.411	-71
3928.971	-66
3931.528	-70
3934.084	-70
3936.638	-72
3939.19	-69
3941.74	-69
3944.288	-72
3946.834	-68
3949.378	-70
3951.921	-65
3954.462	-66
3957	-66
3959.537	-68
3962.072	-68
3964.606	-68
3967.137	-69
3969.667	-69
3972.194	-68
3974.72	-70
3977.244	-65
3979.766	-68
3982.286	-65
3984.805	-71
3987.321	-73
3989.836	-70
3992.349	-70
3994.86	-64
3997.369	-63
3999.877	-66
4002.382	-70
4004.886	-68
4007.388	-69
4009.888	-68
4012.386	-66
4014.883	-68
4017.377	-68
4019.87	-65
4022.361	-68
4024.85	-67
4027.338	-66
4029.823	-61
4032.307	-68
4034.789	-68
4037.269	-68
4039.747	-70
4042.224	-69
4044.699	-68
4047.172	-70
4049.643	-64
4052.112	-70
4054.58	-71
4057.046	-71
4059.51	-70
4061.972	-66
4064.432	-66
4066.891	-68
4069.348	-67
4071.803	-71
4074.256	-71
4076.708	-75
4079.158	-71
4081.606	-65
4084.052	-68
4086.497	-65
4088.939	-66
4091.38	-71
4093.819	-68
4096.257	-69
4098.693	-72
4101.127	-74
4103.559	-72
4105.989	-25
4108.418	-17
4110.845	-16
4113.27	-12
4115.694	-8
4118.115	-11
4120.535	-71
4122.954	-68
4125.37	-68
4127.785	-73
4130.198	-68
4132.609	-69
4135.019	-73
4137.427	-69
4139.833	-72
4142.237	-73
