Data from 10000000CFU1_B_ramanshift_RamanShift_15-07-27-652.txt Node
Date: Sun Dec 25 15:07:27 IST 2016
User: aro
Spectrometer: QEPB0276
Trigger mode: 0
Integration Time (sec): 5.000000E0
Scans to average: 1
Electric dark correction enabled: true
Nonlinearity correction enabled: false
Boxcar width: 0
XAxis mode: Raman Shifts
Number of Pixels in Spectrum: 1044
>>>>>Begin Spectral Data<<<<<
160.701	3
166.742	21
172.777	73
178.805	215
184.826	641
190.841	1557
196.849	2862
202.85	4095
208.845	4722
214.833	4733
220.815	4558
226.789	4386
232.758	4276
238.719	4126
244.674	4005
250.623	3853
256.565	3675
262.5	3505
268.429	3346
274.351	3181
280.267	3061
286.176	2969
292.079	2842
297.975	2751
303.865	2653
309.748	2571
315.625	2508
321.495	2430
327.359	2377
333.217	2375
339.068	2336
344.912	2320
350.751	2312
356.583	2278
362.408	2272
368.227	2264
374.04	2270
379.847	2279
385.647	2306
391.44	2296
397.228	2315
403.009	2346
408.784	2339
414.553	2352
420.315	2363
426.071	2379
431.821	2364
437.565	2390
443.302	2349
449.033	2366
454.758	2373
460.477	2344
466.189	2346
471.896	2332
477.596	2328
483.29	2320
488.978	2316
494.66	2304
500.335	2278
506.005	2245
511.668	2218
517.325	2157
522.977	2136
528.622	2135
534.261	2094
539.894	2081
545.521	2031
551.141	2028
556.756	2028
562.365	2015
567.968	2010
573.565	1988
579.155	1994
584.74	2004
590.319	1994
595.892	1955
601.459	1935
607.02	1914
612.575	1909
618.124	1913
623.667	1885
629.204	1874
634.735	1831
640.261	1835
645.781	1810
651.294	1814
656.802	1811
662.304	1790
667.8	1785
673.29	1780
678.775	1761
684.254	1774
689.726	1768
695.193	1752
700.655	1752
706.11	1742
711.56	1731
717.004	1717
722.442	1709
727.874	1696
733.301	1688
738.722	1684
744.137	1666
749.547	1670
754.951	1677
760.349	1666
765.741	1665
771.128	1659
776.509	1666
781.885	1667
787.254	1657
792.618	1669
797.977	1658
803.33	1634
808.677	1616
814.019	1613
819.355	1584
824.686	1577
830.011	1558
835.33	1571
840.644	1550
845.952	1562
851.255	1532
856.552	1528
861.844	1530
867.13	1525
872.41	1522
877.686	1499
882.955	1506
888.219	1477
893.478	1459
898.731	1445
903.979	1416
909.221	1411
914.458	1377
919.69	1367
924.916	1375
930.136	1359
935.351	1365
940.561	1361
945.766	1365
950.965	1370
956.158	1352
961.347	1325
966.529	1306
971.707	1306
976.879	1291
982.046	1271
987.208	1264
992.364	1253
997.515	1278
1002.66	1260
1007.801	1276
1012.936	1298
1018.066	1295
1023.19	1310
1028.309	1326
1033.423	1304
1038.532	1309
1043.636	1299
1048.734	1296
1053.827	1285
1058.915	1276
1063.998	1245
1069.075	1259
1074.147	1242
1079.214	1259
1084.276	1263
1089.333	1249
1094.385	1298
1099.431	1295
1104.472	1298
1109.509	1285
1114.54	1269
1119.565	1262
1124.586	1252
1129.602	1261
1134.613	1233
1139.618	1228
1144.619	1211
1149.614	1229
1154.604	1231
1159.589	1243
1164.57	1244
1169.545	1240
1174.515	1240
1179.48	1267
1184.44	1253
1189.395	1237
1194.345	1222
1199.29	1230
1204.23	1217
1209.165	1219
1214.095	1227
1219.021	1244
1223.941	1262
1228.856	1256
1233.766	1271
1238.672	1270
1243.572	1258
1248.467	1250
1253.358	1249
1258.244	1244
1263.124	1232
1268	1216
1272.871	1202
1277.737	1189
1282.599	1184
1287.455	1181
1292.306	1175
1297.153	1192
1301.995	1184
1306.832	1201
1311.664	1214
1316.491	1207
1321.314	1210
1326.132	1207
1330.945	1213
1335.753	1177
1340.556	1165
1345.354	1152
1350.148	1151
1354.937	1132
1359.722	1119
1364.501	1118
1369.276	1117
1374.046	1095
1378.811	1103
1383.572	1100
1388.327	1094
1393.079	1096
1397.825	1091
1402.567	1086
1407.304	1079
1412.036	1077
1416.764	1067
1421.487	1070
1426.205	1066
1430.919	1080
1435.628	1089
1440.333	1096
1445.032	1099
1449.727	1116
1454.418	1124
1459.104	1119
1463.785	1109
1468.462	1117
1473.134	1102
1477.802	1097
1482.465	1084
1487.123	1079
1491.777	1067
1496.426	1058
1501.071	1083
1505.711	1084
1510.347	1092
1514.978	1118
1519.604	1120
1524.226	1120
1528.844	1133
1533.457	1126
1538.065	1142
1542.669	1123
1547.269	1118
1551.864	1119
1556.454	1124
1561.041	1127
1565.622	1147
1570.199	1165
1574.772	1178
1579.34	1182
1583.904	1207
1588.464	1227
1593.019	1249
1597.569	1245
1602.115	1269
1606.657	1293
1611.195	1287
1615.728	1285
1620.256	1317
1624.78	1337
1629.3	1343
1633.816	1370
1638.327	1375
1642.834	1396
1647.336	1405
1651.834	1432
1656.328	1423
1660.817	1423
1665.302	1410
1669.783	1376
1674.259	1359
1678.732	1311
1683.199	1267
1687.663	1249
1692.122	1211
1696.577	1159
1701.028	1123
1705.474	1069
1709.917	1037
1714.355	1007
1718.788	988
1723.218	970
1727.643	959
1732.064	940
1736.481	939
1740.893	909
1745.301	885
1749.705	848
1754.105	837
1758.501	818
1762.893	809
1767.28	792
1771.663	782
1776.042	781
1780.417	775
1784.787	776
1789.154	774
1793.516	764
1797.874	774
1802.228	780
1806.578	766
1810.924	752
1815.266	730
1819.603	741
1823.937	724
1828.266	713
1832.591	715
1836.913	696
1841.23	697
1845.543	698
1849.852	702
1854.156	711
1858.457	707
1862.754	704
1867.047	712
1871.335	708
1875.62	718
1879.9	721
1884.177	729
1888.449	709
1892.718	715
1896.982	703
1901.243	692
1905.499	701
1909.752	706
1914	692
1918.245	696
1922.485	699
1926.722	700
1930.954	695
1935.183	707
1939.408	718
1943.628	700
1947.845	714
1952.058	710
1956.267	703
1960.472	699
1964.673	697
1968.87	683
1973.063	686
1977.252	670
1981.438	663
1985.619	665
1989.797	666
1993.971	675
1998.14	669
2002.306	677
2006.469	686
2010.627	684
2014.781	684
2018.932	677
2023.078	684
2027.221	691
2031.36	680
2035.495	678
2039.627	665
2043.754	669
2047.878	660
2051.998	664
2056.114	658
2060.226	669
2064.334	665
2068.439	667
2072.54	676
2076.637	678
2080.73	670
2084.82	671
2088.906	681
2092.988	680
2097.066	679
2101.14	671
2105.211	664
2109.278	685
2113.342	665
2117.401	645
2121.457	652
2125.509	637
2129.558	652
2133.602	648
2137.643	650
2141.681	656
2145.714	635
2149.744	647
2153.77	629
2157.793	636
2161.812	629
2165.827	634
2169.838	617
2173.846	607
2177.851	602
2181.851	592
2185.848	584
2189.841	581
2193.831	587
2197.817	566
2201.799	572
2205.778	563
2209.753	566
2213.725	572
2217.693	570
2221.657	564
2225.618	566
2229.575	563
2233.529	560
2237.479	550
2241.425	565
2245.368	550
2249.307	533
2253.243	530
2257.175	520
2261.104	519
2265.029	508
2268.95	515
2272.868	505
2276.783	493
2280.694	488
2284.601	481
2288.505	472
2292.405	475
2296.302	478
2300.195	467
2304.085	458
2307.971	447
2311.854	446
2315.734	438
2319.609	435
2323.482	417
2327.351	421
2331.216	411
2335.078	407
2338.937	415
2342.792	407
2346.643	405
2350.492	403
2354.336	415
2358.178	407
2362.015	406
2365.85	403
2369.681	409
2373.508	409
2377.333	412
2381.153	406
2384.971	409
2388.785	397
2392.595	403
2396.402	394
2400.206	395
2404.007	388
2407.804	388
2411.597	404
2415.388	397
2419.174	387
2422.958	389
2426.738	388
2430.515	395
2434.289	385
2438.059	388
2441.825	381
2445.589	381
2449.349	365
2453.106	366
2456.859	374
2460.61	373
2464.356	371
2468.1	369
2471.84	357
2475.577	355
2479.311	350
2483.041	358
2486.768	360
2490.492	362
2494.213	357
2497.93	348
2501.644	354
2505.355	358
2509.062	358
2512.766	355
2516.467	354
2520.165	345
2523.859	341
2527.551	337
2531.239	347
2534.923	325
2538.605	340
2542.283	337
2545.958	334
2549.63	332
2553.299	334
2556.964	329
2560.626	329
2564.285	329
2567.941	318
2571.594	319
2575.243	316
2578.89	313
2582.533	309
2586.173	310
2589.809	305
2593.443	310
2597.073	305
2600.701	307
2604.325	300
2607.946	299
2611.564	305
2615.178	299
2618.79	295
2622.398	297
2626.004	299
2629.606	292
2633.205	293
2636.801	289
2640.394	284
2643.983	285
2647.57	280
2651.153	272
2654.734	277
2658.311	274
2661.885	271
2665.456	280
2669.025	275
2672.589	262
2676.151	262
2679.71	254
2683.266	266
2686.819	255
2690.368	257
2693.915	257
2697.458	255
2700.999	248
2704.536	253
2708.071	240
2711.602	240
2715.13	234
2718.656	238
2722.178	242
2725.697	240
2729.214	239
2732.727	239
2736.237	240
2739.744	244
2743.249	230
2746.75	242
2750.248	238
2753.743	240
2757.236	239
2760.725	240
2764.211	236
2767.695	228
2771.175	235
2774.652	236
2778.127	222
2781.598	233
2785.067	231
2788.532	240
2791.995	238
2795.455	230
2798.911	228
2802.365	229
2805.816	232
2809.264	234
2812.709	242
2816.151	233
2819.59	238
2823.026	237
2826.46	240
2829.89	239
2833.318	233
2836.742	238
2840.164	231
2843.583	245
2846.999	242
2850.412	239
2853.822	252
2857.229	259
2860.634	254
2864.035	252
2867.434	266
2870.83	262
2874.223	267
2877.613	268
2881	268
2884.385	268
2887.766	271
2891.145	271
2894.521	270
2897.894	275
2901.264	273
2904.631	278
2907.996	282
2911.358	278
2914.717	280
2918.073	284
2921.426	285
2924.777	288
2928.124	293
2931.469	300
2934.811	306
2938.15	313
2941.487	319
2944.821	320
2948.152	318
2951.48	330
2954.805	334
2958.128	340
2961.447	343
2964.765	343
2968.079	353
2971.39	360
2974.699	361
2978.005	370
2981.308	375
2984.609	393
2987.907	393
2991.202	408
2994.494	414
2997.784	432
3001.07	436
3004.355	453
3007.636	466
3010.915	473
3014.191	487
3017.464	498
3020.734	495
3024.002	508
3027.267	522
3030.53	529
3033.789	532
3037.046	533
3040.301	564
3043.552	567
3046.801	581
3050.048	598
3053.291	608
3056.532	629
3059.771	646
3063.006	673
3066.239	680
3069.469	708
3072.697	721
3075.922	745
3079.144	767
3082.364	786
3085.581	799
3088.795	818
3092.007	827
3095.216	853
3098.423	872
3101.627	903
3104.828	907
3108.026	931
3111.222	953
3114.416	965
3117.607	997
3120.795	1014
3123.98	1042
3127.163	1067
3130.344	1081
3133.521	1112
3136.696	1128
3139.869	1146
3143.039	1155
3146.206	1175
3149.371	1204
3152.533	1220
3155.693	1225
3158.85	1224
3162.005	1253
3165.157	1231
3168.306	1241
3171.453	1258
3174.597	1263
3177.739	1265
3180.878	1279
3184.014	1265
3187.149	1264
3190.28	1258
3193.409	1268
3196.536	1261
3199.659	1266
3202.781	1283
3205.9	1276
3209.016	1285
3212.13	1284
3215.241	1283
3218.35	1260
3221.456	1264
3224.56	1240
3227.661	1240
3230.76	1218
3233.856	1210
3236.95	1205
3240.041	1185
3243.13	1179
3246.216	1146
3249.3	1159
3252.382	1146
3255.46	1135
3258.537	1130
3261.611	1132
3264.682	1131
3267.751	1113
3270.818	1110
3273.882	1116
3276.943	1110
3280.002	1096
3283.059	1077
3286.113	1076
3289.165	1049
3292.214	1044
3295.261	1030
3298.306	1006
3301.348	997
3304.387	989
3307.425	965
3310.459	955
3313.492	953
3316.521	939
3319.549	934
3322.574	907
3325.597	899
3328.617	905
3331.635	900
3334.65	899
3337.663	885
3340.674	867
3343.682	875
3346.688	882
3349.691	867
3352.692	856
3355.691	850
3358.687	857
3361.681	840
3364.673	839
3367.662	830
3370.649	798
3373.633	811
3376.615	817
3379.595	785
3382.572	784
3385.547	764
3388.52	766
3391.49	745
3394.458	735
3397.424	727
3400.387	723
3403.348	707
3406.307	696
3409.263	699
3412.217	686
3415.168	682
3418.118	689
3421.065	668
3424.009	655
3426.951	648
3429.891	639
3432.829	626
3435.764	616
3438.697	594
3441.628	585
3444.557	576
3447.483	558
3450.407	547
3453.328	524
3456.247	537
3459.164	501
3462.079	497
3464.991	482
3467.902	468
3470.809	447
3473.715	429
3476.618	420
3479.519	416
3482.418	401
3485.315	388
3488.209	381
3491.101	369
3493.99	353
3496.878	357
3499.763	341
3502.646	334
3505.527	321
3508.405	304
3511.281	295
3514.155	286
3517.027	273
3519.897	258
3522.764	257
3525.629	249
3528.492	228
3531.352	211
3534.211	206
3537.067	187
3539.921	181
3542.773	178
3545.622	172
3548.469	158
3551.315	151
3554.157	143
3556.998	138
3559.837	124
3562.673	113
3565.507	109
3568.339	113
3571.169	105
3573.996	96
3576.822	98
3579.645	81
3582.466	83
3585.285	75
3588.101	77
3590.916	65
3593.728	65
3596.538	62
3599.346	55
3602.152	49
3604.956	44
3607.757	36
3610.556	35
3613.354	30
3616.149	26
3618.942	27
3621.732	21
3624.521	18
3627.307	14
3630.092	13
3632.874	8
3635.654	1
3638.432	3
3641.208	0
3643.982	0
3646.753	-4
3649.523	-1
3652.29	-7
3655.055	-12
3657.818	-21
3660.579	-16
3663.338	-21
3666.095	-18
3668.849	-25
3671.602	-21
3674.352	-31
3677.101	-31
3679.847	-34
3682.591	-33
3685.333	-34
3688.073	-33
3690.811	-35
3693.547	-42
3696.281	-36
3699.013	-43
3701.742	-39
3704.47	-45
3707.195	-46
3709.919	-48
3712.64	-52
3715.359	-44
3718.076	-52
3720.792	-50
3723.505	-52
3726.216	-54
3728.925	-55
3731.632	-59
3734.336	-54
3737.039	-55
3739.74	-54
3742.439	-53
3745.136	-57
3747.83	-57
3750.523	-63
3753.213	-62
3755.902	-60
3758.589	-58
3761.273	-62
3763.956	-62
3766.636	-56
3769.315	-59
3771.991	-64
3774.665	-68
3777.338	-65
3780.008	-62
3782.677	-60
3785.343	-60
3788.007	-66
3790.67	-66
3793.33	-66
3795.989	-63
3798.645	-68
3801.299	-66
3803.952	-65
3806.602	-64
3809.251	-65
3811.897	-71
3814.542	-70
3817.184	-68
3819.825	-67
3822.463	-70
3825.1	-74
3827.735	-67
3830.367	-70
3832.998	-66
3835.627	-70
3838.253	-72
3840.878	-75
3843.501	-71
3846.122	-73
3848.741	-76
3851.358	-75
3853.973	-69
3856.586	-67
3859.197	-69
3861.806	-72
3864.414	-75
3867.019	-74
3869.622	-71
3872.224	-73
3874.823	-73
3877.421	-69
3880.016	-70
3882.61	-65
3885.202	-64
3887.792	-67
3890.38	-68
3892.966	-69
3895.55	-71
3898.132	-72
3900.713	-74
3903.291	-75
3905.868	-71
3908.442	-75
3911.015	-77
3913.586	-75
3916.155	-73
3918.722	-73
3921.287	-73
3923.85	-76
3926.411	-74
3928.971	-74
3931.528	-75
3934.084	-78
3936.638	-81
3939.19	-78
3941.74	-78
3944.288	-76
3946.834	-73
3949.378	-77
3951.921	-72
3954.462	-77
3957	-79
3959.537	-78
3962.072	-75
3964.606	-76
3967.137	-79
3969.667	-73
3972.194	-74
3974.72	-77
3977.244	-75
3979.766	-75
3982.286	-73
3984.805	-77
3987.321	-76
3989.836	-73
3992.349	-73
3994.86	-67
3997.369	-69
3999.877	-75
4002.382	-76
4004.886	-78
4007.388	-76
4009.888	-74
4012.386	-73
4014.883	-72
4017.377	-78
4019.87	-75
4022.361	-77
4024.85	-75
4027.338	-75
4029.823	-70
4032.307	-69
4034.789	-74
4037.269	-75
4039.747	-80
4042.224	-79
4044.699	-75
4047.172	-76
4049.643	-73
4052.112	-74
4054.58	-75
4057.046	-76
4059.51	-77
4061.972	-73
4064.432	-72
4066.891	-77
4069.348	-77
4071.803	-75
4074.256	-76
4076.708	-80
4079.158	-75
4081.606	-71
4084.052	-75
4086.497	-76
4088.939	-74
4091.38	-77
4093.819	-76
4096.257	-79
4098.693	-77
4101.127	-79
4103.559	-79
4105.989	-27
4108.418	-26
4110.845	-19
4113.27	-15
4115.694	-14
4118.115	-12
4120.535	-75
4122.954	-74
4125.37	-76
4127.785	-80
4130.198	-75
4132.609	-77
4135.019	-80
4137.427	-76
4139.833	-78
4142.237	-78
