Data from 1CFU_FROM15TH_ramanshift_RamanShift_13-17-40-813.txt Node
Date: Sun Dec 25 13:17:40 IST 2016
User: aro
Spectrometer: QEPB0276
Trigger mode: 0
Integration Time (sec): 5.000000E0
Scans to average: 1
Electric dark correction enabled: true
Nonlinearity correction enabled: false
Boxcar width: 0
XAxis mode: Raman Shifts
Number of Pixels in Spectrum: 1044
>>>>>Begin Spectral Data<<<<<
160.701	3
166.742	19
172.777	68
178.805	217
184.826	625
190.841	1476
196.849	2696
202.85	3864
208.845	4414
214.833	4408
220.815	4240
226.789	4110
232.758	4001
238.719	3869
244.674	3732
250.623	3599
256.565	3461
262.5	3293
268.429	3145
274.351	3013
280.267	2902
286.176	2782
292.079	2694
297.975	2582
303.865	2486
309.748	2432
315.625	2374
321.495	2336
327.359	2284
333.217	2236
339.068	2211
344.912	2201
350.751	2182
356.583	2176
362.408	2165
368.227	2173
374.04	2182
379.847	2186
385.647	2195
391.44	2201
397.228	2205
403.009	2234
408.784	2224
414.553	2233
420.315	2269
426.071	2253
431.821	2256
437.565	2240
443.302	2232
449.033	2242
454.758	2229
460.477	2236
466.189	2239
471.896	2204
477.596	2212
483.29	2199
488.978	2191
494.66	2179
500.335	2182
506.005	2151
511.668	2087
517.325	2071
522.977	2052
528.622	2031
534.261	1994
539.894	1971
545.521	1961
551.141	1969
556.756	1942
562.365	1924
567.968	1913
573.565	1917
579.155	1883
584.74	1871
590.319	1873
595.892	1879
601.459	1842
607.02	1846
612.575	1811
618.124	1826
623.667	1814
629.204	1783
634.735	1779
640.261	1749
645.781	1749
651.294	1747
656.802	1737
662.304	1744
667.8	1721
673.29	1721
678.775	1718
684.254	1694
689.726	1699
695.193	1700
700.655	1687
706.11	1664
711.56	1674
717.004	1653
722.442	1637
727.874	1655
733.301	1642
738.722	1632
744.137	1618
749.547	1626
754.951	1595
760.349	1600
765.741	1621
771.128	1614
776.509	1608
781.885	1609
787.254	1609
792.618	1615
797.977	1601
803.33	1586
808.677	1570
814.019	1566
819.355	1562
824.686	1542
830.011	1526
835.33	1526
840.644	1536
845.952	1501
851.255	1500
856.552	1500
861.844	1512
867.13	1500
872.41	1477
877.686	1480
882.955	1460
888.219	1467
893.478	1434
898.731	1399
903.979	1391
909.221	1377
914.458	1357
919.69	1368
924.916	1334
930.136	1360
935.351	1358
940.561	1348
945.766	1368
950.965	1345
956.158	1350
961.347	1326
966.529	1306
971.707	1302
976.879	1273
982.046	1287
987.208	1254
992.364	1255
997.515	1256
1002.66	1262
1007.801	1279
1012.936	1305
1018.066	1298
1023.19	1304
1028.309	1305
1033.423	1318
1038.532	1333
1043.636	1319
1048.734	1290
1053.827	1288
1058.915	1283
1063.998	1265
1069.075	1256
1074.147	1260
1079.214	1267
1084.276	1269
1089.333	1281
1094.385	1292
1099.431	1299
1104.472	1298
1109.509	1302
1114.54	1286
1119.565	1280
1124.586	1268
1129.602	1267
1134.613	1242
1139.618	1230
1144.619	1235
1149.614	1249
1154.604	1250
1159.589	1263
1164.57	1263
1169.545	1251
1174.515	1264
1179.48	1276
1184.44	1265
1189.395	1265
1194.345	1237
1199.29	1243
1204.23	1237
1209.165	1246
1214.095	1257
1219.021	1268
1223.941	1277
1228.856	1277
1233.766	1280
1238.672	1270
1243.572	1296
1248.467	1286
1253.358	1283
1258.244	1274
1263.124	1236
1268	1226
1272.871	1207
1277.737	1196
1282.599	1189
1287.455	1201
1292.306	1197
1297.153	1209
1301.995	1215
1306.832	1225
1311.664	1227
1316.491	1240
1321.314	1239
1326.132	1220
1330.945	1231
1335.753	1192
1340.556	1194
1345.354	1164
1350.148	1151
1354.937	1153
1359.722	1133
1364.501	1141
1369.276	1135
1374.046	1123
1378.811	1133
1383.572	1141
1388.327	1128
1393.079	1129
1397.825	1117
1402.567	1127
1407.304	1101
1412.036	1102
1416.764	1088
1421.487	1076
1426.205	1103
1430.919	1111
1435.628	1108
1440.333	1121
1445.032	1137
1449.727	1125
1454.418	1146
1459.104	1155
1463.785	1135
1468.462	1123
1473.134	1116
1477.802	1117
1482.465	1122
1487.123	1093
1491.777	1096
1496.426	1088
1501.071	1091
1505.711	1109
1510.347	1119
1514.978	1134
1519.604	1153
1524.226	1159
1528.844	1166
1533.457	1153
1538.065	1168
1542.669	1163
1547.269	1160
1551.864	1158
1556.454	1158
1561.041	1173
1565.622	1184
1570.199	1191
1574.772	1189
1579.34	1231
1583.904	1244
1588.464	1256
1593.019	1274
1597.569	1292
1602.115	1300
1606.657	1284
1611.195	1318
1615.728	1296
1620.256	1329
1624.78	1345
1629.3	1370
1633.816	1371
1638.327	1400
1642.834	1406
1647.336	1431
1651.834	1445
1656.328	1431
1660.817	1434
1665.302	1418
1669.783	1395
1674.259	1354
1678.732	1316
1683.199	1290
1687.663	1237
1692.122	1210
1696.577	1175
1701.028	1129
1705.474	1102
1709.917	1072
1714.355	1050
1718.788	1022
1723.218	1015
1727.643	1005
1732.064	999
1736.481	963
1740.893	943
1745.301	920
1749.705	912
1754.105	886
1758.501	857
1762.893	842
1767.28	832
1771.663	823
1776.042	808
1780.417	820
1784.787	808
1789.154	823
1793.516	808
1797.874	827
1802.228	827
1806.578	811
1810.924	811
1815.266	811
1819.603	793
1823.937	797
1828.266	786
1832.591	764
1836.913	769
1841.23	753
1845.543	763
1849.852	765
1854.156	767
1858.457	755
1862.754	770
1867.047	767
1871.335	772
1875.62	765
1879.9	773
1884.177	768
1888.449	784
1892.718	764
1896.982	754
1901.243	753
1905.499	756
1909.752	770
1914	748
1918.245	747
1922.485	750
1926.722	742
1930.954	759
1935.183	757
1939.408	754
1943.628	756
1947.845	764
1952.058	772
1956.267	757
1960.472	767
1964.673	748
1968.87	745
1973.063	741
1977.252	741
1981.438	740
1985.619	718
1989.797	730
1993.971	734
1998.14	735
2002.306	736
2006.469	743
2010.627	750
2014.781	733
2018.932	743
2023.078	740
2027.221	744
2031.36	716
2035.495	735
2039.627	719
2043.754	717
2047.878	717
2051.998	712
2056.114	710
2060.226	714
2064.334	707
2068.439	712
2072.54	730
2076.637	723
2080.73	734
2084.82	719
2088.906	720
2092.988	723
2097.066	738
2101.14	718
2105.211	714
2109.278	717
2113.342	714
2117.401	700
2121.457	703
2125.509	710
2129.558	705
2133.602	698
2137.643	693
2141.681	694
2145.714	712
2149.744	696
2153.77	692
2157.793	689
2161.812	694
2165.827	686
2169.838	676
2173.846	662
2177.851	654
2181.851	644
2185.848	640
2189.841	633
2193.831	622
2197.817	630
2201.799	616
2205.778	617
2209.753	618
2213.725	614
2217.693	619
2221.657	630
2225.618	608
2229.575	608
2233.529	612
2237.479	604
2241.425	605
2245.368	596
2249.307	588
2253.243	577
2257.175	570
2261.104	569
2265.029	564
2268.95	557
2272.868	559
2276.783	554
2280.694	534
2284.601	531
2288.505	522
2292.405	520
2296.302	518
2300.195	516
2304.085	510
2307.971	503
2311.854	489
2315.734	487
2319.609	488
2323.482	478
2327.351	480
2331.216	468
2335.078	476
2338.937	465
2342.792	461
2346.643	458
2350.492	463
2354.336	452
2358.178	463
2362.015	459
2365.85	470
2369.681	457
2373.508	470
2377.333	469
2381.153	457
2384.971	461
2388.785	454
2392.595	461
2396.402	449
2400.206	446
2404.007	439
2407.804	446
2411.597	450
2415.388	438
2419.174	436
2422.958	435
2426.738	439
2430.515	439
2434.289	438
2438.059	429
2441.825	438
2445.589	428
2449.349	430
2453.106	419
2456.859	432
2460.61	419
2464.356	420
2468.1	424
2471.84	410
2475.577	403
2479.311	414
2483.041	406
2486.768	404
2490.492	408
2494.213	395
2497.93	409
2501.644	408
2505.355	412
2509.062	411
2512.766	410
2516.467	412
2520.165	402
2523.859	395
2527.551	390
2531.239	385
2534.923	387
2538.605	382
2542.283	380
2545.958	382
2549.63	388
2553.299	373
2556.964	373
2560.626	370
2564.285	370
2567.941	369
2571.594	371
2575.243	374
2578.89	368
2582.533	358
2586.173	363
2589.809	351
2593.443	360
2597.073	351
2600.701	347
2604.325	346
2607.946	343
2611.564	358
2615.178	341
2618.79	351
2622.398	350
2626.004	340
2629.606	337
2633.205	338
2636.801	339
2640.394	339
2643.983	326
2647.57	325
2651.153	324
2654.734	331
2658.311	317
2661.885	310
2665.456	317
2669.025	319
2672.589	311
2676.151	310
2679.71	308
2683.266	311
2686.819	305
2690.368	288
2693.915	293
2697.458	297
2700.999	294
2704.536	286
2708.071	280
2711.602	282
2715.13	278
2718.656	281
2722.178	276
2725.697	274
2729.214	275
2732.727	281
2736.237	279
2739.744	285
2743.249	273
2746.75	279
2750.248	270
2753.743	271
2757.236	272
2760.725	277
2764.211	280
2767.695	271
2771.175	268
2774.652	275
2778.127	265
2781.598	265
2785.067	266
2788.532	268
2791.995	268
2795.455	268
2798.911	265
2802.365	262
2805.816	262
2809.264	277
2812.709	276
2816.151	263
2819.59	272
2823.026	264
2826.46	265
2829.89	272
2833.318	274
2836.742	273
2840.164	265
2843.583	263
2846.999	274
2850.412	270
2853.822	287
2857.229	289
2860.634	281
2864.035	286
2867.434	286
2870.83	288
2874.223	292
2877.613	290
2881	299
2884.385	302
2887.766	300
2891.145	290
2894.521	294
2897.894	289
2901.264	305
2904.631	295
2907.996	288
2911.358	307
2914.717	301
2918.073	301
2921.426	301
2924.777	319
2928.124	314
2931.469	320
2934.811	315
2938.15	320
2941.487	335
2944.821	327
2948.152	340
2951.48	345
2954.805	340
2958.128	347
2961.447	343
2964.765	349
2968.079	361
2971.39	359
2974.699	364
2978.005	379
2981.308	386
2984.609	394
2987.907	396
2991.202	398
2994.494	407
2997.784	426
3001.07	429
3004.355	434
3007.636	455
3010.915	458
3014.191	470
3017.464	479
3020.734	484
3024.002	492
3027.267	490
3030.53	501
3033.789	504
3037.046	515
3040.301	536
3043.552	543
3046.801	543
3050.048	573
3053.291	581
3056.532	592
3059.771	609
3063.006	628
3066.239	637
3069.469	650
3072.697	678
3075.922	689
3079.144	708
3082.364	729
3085.581	743
3088.795	751
3092.007	778
3095.216	791
3098.423	791
3101.627	828
3104.828	833
3108.026	853
3111.222	865
3114.416	877
3117.607	910
3120.795	923
3123.98	949
3127.163	959
3130.344	989
3133.521	1008
3136.696	1018
3139.869	1033
3143.039	1055
3146.206	1088
3149.371	1086
3152.533	1097
3155.693	1108
3158.85	1129
3162.005	1114
3165.157	1118
3168.306	1124
3171.453	1124
3174.597	1136
3177.739	1149
3180.878	1157
3184.014	1152
3187.149	1140
3190.28	1137
3193.409	1141
3196.536	1159
3199.659	1161
3202.781	1168
3205.9	1167
3209.016	1167
3212.13	1161
3215.241	1145
3218.35	1152
3221.456	1155
3224.56	1128
3227.661	1119
3230.76	1111
3233.856	1102
3236.95	1092
3240.041	1074
3243.13	1065
3246.216	1056
3249.3	1058
3252.382	1045
3255.46	1032
3258.537	1031
3261.611	1018
3264.682	1018
3267.751	1018
3270.818	1011
3273.882	1016
3276.943	1009
3280.002	986
3283.059	989
3286.113	980
3289.165	976
3292.214	947
3295.261	932
3298.306	930
3301.348	922
3304.387	896
3307.425	899
3310.459	879
3313.492	867
3316.521	858
3319.549	861
3322.574	844
3325.597	830
3328.617	847
3331.635	828
3334.65	833
3337.663	809
3340.674	811
3343.682	807
3346.688	799
3349.691	797
3352.692	792
3355.691	801
3358.687	785
3361.681	778
3364.673	768
3367.662	765
3370.649	754
3373.633	731
3376.615	738
3379.595	716
3382.572	711
3385.547	704
3388.52	694
3391.49	685
3394.458	676
3397.424	667
3400.387	668
3403.348	651
3406.307	646
3409.263	639
3412.217	631
3415.168	629
3418.118	618
3421.065	606
3424.009	604
3426.951	588
3429.891	592
3432.829	575
3435.764	563
3438.697	559
3441.628	552
3444.557	534
3447.483	509
3450.407	505
3453.328	493
3456.247	488
3459.164	465
3462.079	452
3464.991	440
3467.902	425
3470.809	406
3473.715	399
3476.618	388
3479.519	384
3482.418	372
3485.315	366
3488.209	356
3491.101	344
3493.99	326
3496.878	324
3499.763	313
3502.646	310
3505.527	300
3508.405	290
3511.281	274
3514.155	257
3517.027	251
3519.897	235
3522.764	236
3525.629	227
3528.492	218
3531.352	207
3534.211	200
3537.067	177
3539.921	173
3542.773	169
3545.622	152
3548.469	148
3551.315	144
3554.157	136
3556.998	125
3559.837	117
3562.673	114
3565.507	102
3568.339	97
3571.169	97
3573.996	89
3576.822	90
3579.645	83
3582.466	83
3585.285	75
3588.101	66
3590.916	59
3593.728	55
3596.538	50
3599.346	45
3602.152	47
3604.956	38
3607.757	38
3610.556	35
3613.354	31
3616.149	21
3618.942	19
3621.732	20
3624.521	13
3627.307	17
3630.092	14
3632.874	12
3635.654	7
3638.432	9
3641.208	2
3643.982	-3
3646.753	-2
3649.523	-4
3652.29	-5
3655.055	-11
3657.818	-14
3660.579	-11
3663.338	-21
3666.095	-14
3668.849	-25
3671.602	-22
3674.352	-32
3677.101	-32
3679.847	-34
3682.591	-35
3685.333	-31
3688.073	-34
3690.811	-35
3693.547	-36
3696.281	-41
3699.013	-43
3701.742	-40
3704.47	-40
3707.195	-40
3709.919	-38
3712.64	-48
3715.359	-41
3718.076	-48
3720.792	-50
3723.505	-52
3726.216	-53
3728.925	-52
3731.632	-56
3734.336	-48
3737.039	-50
3739.74	-53
3742.439	-48
3745.136	-53
3747.83	-57
3750.523	-56
3753.213	-57
3755.902	-59
3758.589	-54
3761.273	-54
3763.956	-59
3766.636	-57
3769.315	-57
3771.991	-64
3774.665	-64
3777.338	-58
3780.008	-58
3782.677	-61
3785.343	-55
3788.007	-64
3790.67	-63
3793.33	-63
3795.989	-65
3798.645	-65
3801.299	-61
3803.952	-60
3806.602	-63
3809.251	-62
3811.897	-63
3814.542	-65
3817.184	-61
3819.825	-67
3822.463	-65
3825.1	-68
3827.735	-63
3830.367	-69
3832.998	-64
3835.627	-68
3838.253	-66
3840.878	-70
3843.501	-70
3846.122	-71
3848.741	-70
3851.358	-71
3853.973	-66
3856.586	-66
3859.197	-67
3861.806	-68
3864.414	-69
3867.019	-70
3869.622	-66
3872.224	-70
3874.823	-67
3877.421	-67
3880.016	-65
3882.61	-64
3885.202	-63
3887.792	-63
3890.38	-66
3892.966	-66
3895.55	-70
3898.132	-74
3900.713	-73
3903.291	-72
3905.868	-68
3908.442	-71
3911.015	-72
3913.586	-73
3916.155	-72
3918.722	-73
3921.287	-69
3923.85	-70
3926.411	-69
3928.971	-71
3931.528	-76
3934.084	-75
3936.638	-79
3939.19	-76
3941.74	-72
3944.288	-74
3946.834	-73
3949.378	-71
3951.921	-70
3954.462	-71
3957	-72
3959.537	-74
3962.072	-74
3964.606	-77
3967.137	-76
3969.667	-73
3972.194	-73
3974.72	-75
3977.244	-70
3979.766	-72
3982.286	-69
3984.805	-74
3987.321	-74
3989.836	-72
3992.349	-67
3994.86	-69
3997.369	-67
3999.877	-72
4002.382	-71
4004.886	-73
4007.388	-75
4009.888	-72
4012.386	-68
4014.883	-73
4017.377	-73
4019.87	-70
4022.361	-72
4024.85	-74
4027.338	-74
4029.823	-70
4032.307	-68
4034.789	-73
4037.269	-74
4039.747	-76
4042.224	-76
4044.699	-72
4047.172	-73
4049.643	-73
4052.112	-70
4054.58	-72
4057.046	-71
4059.51	-73
4061.972	-68
4064.432	-70
4066.891	-73
4069.348	-76
4071.803	-75
4074.256	-74
4076.708	-74
4079.158	-71
4081.606	-68
4084.052	-76
4086.497	-72
4088.939	-75
4091.38	-74
4093.819	-75
4096.257	-75
4098.693	-78
4101.127	-77
4103.559	-75
4105.989	-22
4108.418	-23
4110.845	-17
4113.27	-20
4115.694	-20
4118.115	-10
4120.535	-75
4122.954	-72
4125.37	-71
4127.785	-73
4130.198	-71
4132.609	-74
4135.019	-78
4137.427	-78
4139.833	-77
4142.237	-74
