Data from 2018-3-7_conc=3_n=4_RamanShift_03.txt Node
Date: Wed Mar 07 11:25:52 IST 2018
User: aro
Spectrometer: QEPB0276
Trigger mode: 0
Integration Time (sec): 3.000000E1
Scans to average: 1
Electric dark correction enabled: true
Nonlinearity correction enabled: false
Boxcar width: 0
XAxis mode: Raman Shifts
Number of Pixels in Spectrum: 1044
>>>>>Begin Spectral Data<<<<<
160.701	9
166.742	21
172.777	51
178.805	136
184.826	337
190.841	695
196.849	1168
202.85	1506
208.845	1645
214.833	1654
220.815	1635
226.789	1636
232.758	1643
238.719	1639
244.674	1641
250.623	1634
256.565	1612
262.5	1595
268.429	1582
274.351	1580
280.267	1562
286.176	1575
292.079	1564
297.975	1565
303.865	1566
309.748	1556
315.625	1551
321.495	1539
327.359	1583
333.217	1563
339.068	1577
344.912	1587
350.751	1595
356.583	1593
362.408	1605
368.227	1599
374.04	1612
379.847	1620
385.647	1598
391.44	1611
397.228	1626
403.009	1640
408.784	1644
414.553	1661
420.315	1668
426.071	1663
431.821	1674
437.565	1655
443.302	1659
449.033	1649
454.758	1643
460.477	1640
466.189	1608
471.896	1597
477.596	1604
483.29	1582
488.978	1601
494.66	1572
500.335	1536
506.005	1505
511.668	1434
517.325	1376
522.977	1334
528.622	1281
534.261	1257
539.894	1231
545.521	1226
551.141	1199
556.756	1204
562.365	1186
567.968	1163
573.565	1173
579.155	1157
584.74	1151
590.319	1156
595.892	1169
601.459	1150
607.02	1135
612.575	1137
618.124	1114
623.667	1117
629.204	1102
634.735	1079
640.261	1069
645.781	1071
651.294	1068
656.802	1052
662.304	1071
667.8	1047
673.29	1063
678.775	1054
684.254	1047
689.726	1040
695.193	1034
700.655	1014
706.11	1022
711.56	1004
717.004	1007
722.442	994
727.874	982
733.301	997
738.722	997
744.137	983
749.547	990
754.951	988
760.349	988
765.741	988
771.128	995
776.509	1009
781.885	1024
787.254	1032
792.618	1022
797.977	1025
803.33	1005
808.677	1003
814.019	998
819.355	987
824.686	967
830.011	975
835.33	972
840.644	965
845.952	963
851.255	959
856.552	961
861.844	936
867.13	936
872.41	934
877.686	930
882.955	925
888.219	921
893.478	903
898.731	878
903.979	861
909.221	862
914.458	850
919.69	857
924.916	858
930.136	856
935.351	869
940.561	861
945.766	871
950.965	861
956.158	848
961.347	841
966.529	839
971.707	815
976.879	803
982.046	801
987.208	800
992.364	806
997.515	796
1002.66	796
1007.801	809
1012.936	820
1018.066	822
1023.19	819
1028.309	828
1033.423	826
1038.532	820
1043.636	825
1048.734	792
1053.827	787
1058.915	801
1063.998	774
1069.075	769
1074.147	774
1079.214	792
1084.276	787
1089.333	793
1094.385	775
1099.431	791
1104.472	780
1109.509	763
1114.54	765
1119.565	759
1124.586	737
1129.602	734
1134.613	736
1139.618	725
1144.619	721
1149.614	722
1154.604	719
1159.589	730
1164.57	721
1169.545	737
1174.515	734
1179.48	735
1184.44	721
1189.395	719
1194.345	711
1199.29	705
1204.23	722
1209.165	698
1214.095	717
1219.021	715
1223.941	719
1228.856	721
1233.766	715
1238.672	722
1243.572	720
1248.467	713
1253.358	715
1258.244	695
1263.124	675
1268	670
1272.871	655
1277.737	657
1282.599	667
1287.455	659
1292.306	649
1297.153	660
1301.995	660
1306.832	670
1311.664	672
1316.491	672
1321.314	664
1326.132	661
1330.945	649
1335.753	644
1340.556	619
1345.354	619
1350.148	603
1354.937	592
1359.722	565
1364.501	565
1369.276	554
1374.046	542
1378.811	542
1383.572	547
1388.327	530
1393.079	541
1397.825	542
1402.567	542
1407.304	554
1412.036	560
1416.764	544
1421.487	554
1426.205	555
1430.919	543
1435.628	556
1440.333	564
1445.032	554
1449.727	584
1454.418	568
1459.104	562
1463.785	551
1468.462	549
1473.134	540
1477.802	517
1482.465	507
1487.123	489
1491.777	480
1496.426	486
1501.071	475
1505.711	471
1510.347	462
1514.978	453
1519.604	460
1524.226	458
1528.844	456
1533.457	464
1538.065	462
1542.669	454
1547.269	456
1551.864	466
1556.454	474
1561.041	479
1565.622	474
1570.199	476
1574.772	473
1579.34	482
1583.904	487
1588.464	494
1593.019	496
1597.569	497
1602.115	497
1606.657	495
1611.195	493
1615.728	490
1620.256	485
1624.78	497
1629.3	481
1633.816	495
1638.327	493
1642.834	486
1647.336	488
1651.834	484
1656.328	480
1660.817	487
1665.302	482
1669.783	461
1674.259	451
1678.732	447
1683.199	425
1687.663	414
1692.122	398
1696.577	373
1701.028	369
1705.474	347
1709.917	343
1714.355	334
1718.788	318
1723.218	331
1727.643	330
1732.064	332
1736.481	329
1740.893	327
1745.301	315
1749.705	308
1754.105	309
1758.501	299
1762.893	297
1767.28	286
1771.663	281
1776.042	283
1780.417	270
1784.787	272
1789.154	252
1793.516	257
1797.874	246
1802.228	253
1806.578	254
1810.924	244
1815.266	245
1819.603	251
1823.937	250
1828.266	252
1832.591	256
1836.913	254
1841.23	251
1845.543	250
1849.852	255
1854.156	248
1858.457	251
1862.754	259
1867.047	246
1871.335	251
1875.62	253
1879.9	252
1884.177	234
1888.449	243
1892.718	238
1896.982	241
1901.243	218
1905.499	229
1909.752	213
1914	214
1918.245	214
1922.485	206
1926.722	201
1930.954	195
1935.183	208
1939.408	207
1943.628	199
1947.845	203
1952.058	196
1956.267	190
1960.472	198
1964.673	183
1968.87	195
1973.063	184
1977.252	192
1981.438	187
1985.619	178
1989.797	191
1993.971	191
1998.14	193
2002.306	187
2006.469	196
2010.627	186
2014.781	195
2018.932	193
2023.078	191
2027.221	192
2031.36	187
2035.495	178
2039.627	175
2043.754	180
2047.878	174
2051.998	181
2056.114	170
2060.226	166
2064.334	169
2068.439	170
2072.54	164
2076.637	175
2080.73	169
2084.82	170
2088.906	163
2092.988	157
2097.066	157
2101.14	160
2105.211	152
2109.278	157
2113.342	145
2117.401	148
2121.457	152
2125.509	149
2129.558	144
2133.602	155
2137.643	156
2141.681	142
2145.714	148
2149.744	147
2153.77	155
2157.793	149
2161.812	160
2165.827	141
2169.838	139
2173.846	140
2177.851	137
2181.851	143
2185.848	139
2189.841	136
2193.831	131
2197.817	138
2201.799	138
2205.778	134
2209.753	136
2213.725	126
2217.693	135
2221.657	125
2225.618	128
2229.575	126
2233.529	133
2237.479	126
2241.425	127
2245.368	124
2249.307	124
2253.243	114
2257.175	119
2261.104	115
2265.029	113
2268.95	116
2272.868	108
2276.783	108
2280.694	104
2284.601	100
2288.505	109
2292.405	106
2296.302	112
2300.195	102
2304.085	104
2307.971	94
2311.854	98
2315.734	93
2319.609	106
2323.482	93
2327.351	101
2331.216	103
2335.078	114
2338.937	115
2342.792	100
2346.643	93
2350.492	103
2354.336	97
2358.178	91
2362.015	100
2365.85	102
2369.681	101
2373.508	107
2377.333	100
2381.153	95
2384.971	93
2388.785	86
2392.595	96
2396.402	92
2400.206	94
2404.007	94
2407.804	92
2411.597	92
2415.388	82
2419.174	93
2422.958	91
2426.738	90
2430.515	89
2434.289	86
2438.059	84
2441.825	84
2445.589	83
2449.349	82
2453.106	78
2456.859	80
2460.61	79
2464.356	84
2468.1	76
2471.84	76
2475.577	75
2479.311	75
2483.041	73
2486.768	73
2490.492	71
2494.213	74
2497.93	74
2501.644	75
2505.355	65
2509.062	68
2512.766	74
2516.467	63
2520.165	63
2523.859	70
2527.551	59
2531.239	59
2534.923	62
2538.605	55
2542.283	50
2545.958	56
2549.63	58
2553.299	58
2556.964	48
2560.626	59
2564.285	54
2567.941	56
2571.594	48
2575.243	52
2578.89	51
2582.533	47
2586.173	47
2589.809	57
2593.443	46
2597.073	49
2600.701	52
2604.325	41
2607.946	39
2611.564	39
2615.178	50
2618.79	44
2622.398	41
2626.004	38
2629.606	41
2633.205	41
2636.801	44
2640.394	43
2643.983	39
2647.57	40
2651.153	35
2654.734	37
2658.311	36
2661.885	40
2665.456	42
2669.025	43
2672.589	32
2676.151	30
2679.71	25
2683.266	30
2686.819	35
2690.368	31
2693.915	36
2697.458	27
2700.999	39
2704.536	34
2708.071	34
2711.602	25
2715.13	22
2718.656	27
2722.178	24
2725.697	27
2729.214	21
2732.727	33
2736.237	26
2739.744	19
2743.249	21
2746.75	21
2750.248	15
2753.743	14
2757.236	17
2760.725	21
2764.211	11
2767.695	15
2771.175	15
2774.652	17
2778.127	16
2781.598	15
2785.067	13
2788.532	7
2791.995	12
2795.455	9
2798.911	14
2802.365	14
2805.816	13
2809.264	15
2812.709	13
2816.151	20
2819.59	27
2823.026	16
2826.46	14
2829.89	18
2833.318	18
2836.742	22
2840.164	14
2843.583	16
2846.999	17
2850.412	18
2853.822	20
2857.229	19
2860.634	14
2864.035	21
2867.434	20
2870.83	23
2874.223	19
2877.613	21
2881	21
2884.385	31
2887.766	26
2891.145	28
2894.521	28
2897.894	31
2901.264	30
2904.631	22
2907.996	27
2911.358	27
2914.717	24
2918.073	26
2921.426	22
2924.777	32
2928.124	32
2931.469	33
2934.811	42
2938.15	49
2941.487	44
2944.821	38
2948.152	43
2951.48	33
2954.805	37
2958.128	34
2961.447	37
2964.765	36
2968.079	30
2971.39	32
2974.699	35
2978.005	39
2981.308	30
2984.609	37
2987.907	35
2991.202	39
2994.494	33
2997.784	31
3001.07	37
3004.355	37
3007.636	40
3010.915	39
3014.191	32
3017.464	37
3020.734	41
3024.002	38
3027.267	45
3030.53	46
3033.789	44
3037.046	49
3040.301	46
3043.552	51
3046.801	50
3050.048	51
3053.291	51
3056.532	54
3059.771	54
3063.006	56
3066.239	61
3069.469	72
3072.697	64
3075.922	75
3079.144	70
3082.364	74
3085.581	73
3088.795	84
3092.007	83
3095.216	86
3098.423	83
3101.627	85
3104.828	93
3108.026	91
3111.222	88
3114.416	92
3117.607	103
3120.795	97
3123.98	102
3127.163	118
3130.344	116
3133.521	114
3136.696	121
3139.869	123
3143.039	115
3146.206	128
3149.371	124
3152.533	135
3155.693	128
3158.85	122
3162.005	127
3165.157	130
3168.306	134
3171.453	132
3174.597	126
3177.739	134
3180.878	132
3184.014	131
3187.149	136
3190.28	124
3193.409	134
3196.536	125
3199.659	138
3202.781	135
3205.9	131
3209.016	130
3212.13	128
3215.241	133
3218.35	125
3221.456	130
3224.56	127
3227.661	120
3230.76	123
3233.856	121
3236.95	118
3240.041	111
3243.13	118
3246.216	109
3249.3	101
3252.382	112
3255.46	110
3258.537	106
3261.611	109
3264.682	107
3267.751	108
3270.818	91
3273.882	104
3276.943	101
3280.002	102
3283.059	99
3286.113	89
3289.165	93
3292.214	91
3295.261	94
3298.306	92
3301.348	90
3304.387	92
3307.425	87
3310.459	90
3313.492	95
3316.521	89
3319.549	93
3322.574	87
3325.597	85
3328.617	87
3331.635	90
3334.65	88
3337.663	70
3340.674	88
3343.682	83
3346.688	81
3349.691	84
3352.692	86
3355.691	91
3358.687	83
3361.681	81
3364.673	89
3367.662	85
3370.649	89
3373.633	64
3376.615	73
3379.595	71
3382.572	72
3385.547	69
3388.52	65
3391.49	61
3394.458	64
3397.424	71
3400.387	65
3403.348	55
3406.307	53
3409.263	66
3412.217	66
3415.168	70
3418.118	55
3421.065	47
3424.009	53
3426.951	47
3429.891	47
3432.829	46
3435.764	54
3438.697	51
3441.628	39
3444.557	44
3447.483	42
3450.407	32
3453.328	31
3456.247	35
3459.164	26
3462.079	25
3464.991	22
3467.902	23
3470.809	19
3473.715	17
3476.618	14
3479.519	9
3482.418	18
3485.315	17
3488.209	3
3491.101	6
3493.99	9
3496.878	1
3499.763	-2
3502.646	0
3505.527	-3
3508.405	-5
3511.281	-7
3514.155	-8
3517.027	-14
3519.897	-6
3522.764	-8
3525.629	-5
3528.492	-10
3531.352	-14
3534.211	-17
3537.067	-15
3539.921	-13
3542.773	-23
3545.622	-23
3548.469	-20
3551.315	-23
3554.157	-23
3556.998	-25
3559.837	-25
3562.673	-24
3565.507	-25
3568.339	-23
3571.169	-28
3573.996	-23
3576.822	-32
3579.645	-27
3582.466	-30
3585.285	-31
3588.101	-33
3590.916	-36
3593.728	-31
3596.538	-39
3599.346	-39
3602.152	-34
3604.956	-37
3607.757	-26
3610.556	-35
3613.354	-41
3616.149	-34
3618.942	-42
3621.732	-36
3624.521	-39
3627.307	-37
3630.092	-45
3632.874	-45
3635.654	-47
3638.432	-40
3641.208	-40
3643.982	-39
3646.753	-47
3649.523	-39
3652.29	-48
3655.055	-41
3657.818	-42
3660.579	-40
3663.338	-38
3666.095	-43
3668.849	-47
3671.602	-44
3674.352	-42
3677.101	-41
3679.847	-39
3682.591	-45
3685.333	-40
3688.073	-51
3690.811	-48
3693.547	-50
3696.281	-42
3699.013	-40
3701.742	-48
3704.47	-43
3707.195	-50
3709.919	-48
3712.64	-49
3715.359	-49
3718.076	-50
3720.792	-49
3723.505	-56
3726.216	-42
3728.925	-52
3731.632	-47
3734.336	-48
3737.039	-44
3739.74	-51
3742.439	-51
3745.136	-51
3747.83	-49
3750.523	-54
3753.213	-53
3755.902	-54
3758.589	-51
3761.273	-56
3763.956	-54
3766.636	-52
3769.315	-46
3771.991	-54
3774.665	-54
3777.338	-52
3780.008	-52
3782.677	-56
3785.343	-47
3788.007	-51
3790.67	-52
3793.33	-48
3795.989	-51
3798.645	-58
3801.299	-47
3803.952	-51
3806.602	-56
3809.251	-56
3811.897	-51
3814.542	-59
3817.184	-60
3819.825	-50
3822.463	-52
3825.1	-47
3827.735	-56
3830.367	-57
3832.998	-58
3835.627	-48
3838.253	-49
3840.878	-47
3843.501	-45
3846.122	-55
3848.741	-53
3851.358	-52
3853.973	-47
3856.586	-53
3859.197	-52
3861.806	-52
3864.414	-55
3867.019	-54
3869.622	-42
3872.224	-39
3874.823	-31
3877.421	-22
3880.016	-9
3882.61	6
3885.202	3
3887.792	-2
3890.38	-18
3892.966	-37
3895.55	-46
3898.132	-51
3900.713	-52
3903.291	-55
3905.868	-50
3908.442	-53
3911.015	-49
3913.586	-55
3916.155	-50
3918.722	-55
3921.287	-51
3923.85	-47
3926.411	-60
3928.971	-65
3931.528	-53
3934.084	-54
3936.638	-54
3939.19	-61
3941.74	-52
3944.288	-51
3946.834	-52
3949.378	-50
3951.921	-54
3954.462	-51
3957	-46
3959.537	-43
3962.072	-51
3964.606	-45
3967.137	-52
3969.667	-57
3972.194	-52
3974.72	-49
3977.244	-48
3979.766	-54
3982.286	-50
3984.805	-54
3987.321	-53
3989.836	-50
3992.349	-46
3994.86	-51
3997.369	-48
3999.877	-48
4002.382	-53
4004.886	-52
4007.388	-58
4009.888	-58
4012.386	-55
4014.883	-55
4017.377	-50
4019.87	-54
4022.361	-58
4024.85	-49
4027.338	-52
4029.823	-54
4032.307	-56
4034.789	-48
4037.269	-46
4039.747	-53
4042.224	-52
4044.699	-54
4047.172	-57
4049.643	-53
4052.112	-55
4054.58	-52
4057.046	-51
4059.51	-54
4061.972	-55
4064.432	-51
4066.891	-47
4069.348	-43
4071.803	-48
4074.256	-49
4076.708	-49
4079.158	-61
4081.606	-53
4084.052	-57
4086.497	-49
4088.939	-50
4091.38	-60
4093.819	-57
4096.257	-52
4098.693	-52
4101.127	-48
4103.559	-57
4105.989	19
4108.418	12
4110.845	10
4113.27	4
4115.694	6
4118.115	13
4120.535	-49
4122.954	-51
4125.37	-48
4127.785	-45
4130.198	-49
4132.609	-54
4135.019	-52
4137.427	-58
4139.833	-53
4142.237	-54
