Data from 2018-3-7_conc=5_n=5_RamanShift_03.txt Node
Date: Wed Mar 07 12:38:22 IST 2018
User: aro
Spectrometer: QEPB0276
Trigger mode: 0
Integration Time (sec): 3.000000E1
Scans to average: 1
Electric dark correction enabled: true
Nonlinearity correction enabled: false
Boxcar width: 0
XAxis mode: Raman Shifts
Number of Pixels in Spectrum: 1044
>>>>>Begin Spectral Data<<<<<
160.701	7
166.742	20
172.777	56
178.805	183
184.826	485
190.841	1055
196.849	1771
202.85	2342
208.845	2547
214.833	2566
220.815	2511
226.789	2486
232.758	2507
238.719	2496
244.674	2476
250.623	2449
256.565	2418
262.5	2372
268.429	2354
274.351	2330
280.267	2292
286.176	2290
292.079	2274
297.975	2271
303.865	2271
309.748	2266
315.625	2269
321.495	2240
327.359	2261
333.217	2255
339.068	2256
344.912	2240
350.751	2267
356.583	2262
362.408	2254
368.227	2275
374.04	2280
379.847	2250
385.647	2286
391.44	2284
397.228	2264
403.009	2319
408.784	2314
414.553	2326
420.315	2323
426.071	2330
431.821	2336
437.565	2343
443.302	2333
449.033	2325
454.758	2308
460.477	2281
466.189	2286
471.896	2279
477.596	2271
483.29	2246
488.978	2268
494.66	2242
500.335	2208
506.005	2144
511.668	2093
517.325	2057
522.977	1999
528.622	1956
534.261	1929
539.894	1914
545.521	1910
551.141	1884
556.756	1881
562.365	1876
567.968	1861
573.565	1855
579.155	1834
584.74	1828
590.319	1831
595.892	1827
601.459	1809
607.02	1821
612.575	1784
618.124	1756
623.667	1778
629.204	1749
634.735	1722
640.261	1740
645.781	1699
651.294	1700
656.802	1703
662.304	1682
667.8	1693
673.29	1700
678.775	1694
684.254	1675
689.726	1689
695.193	1663
700.655	1656
706.11	1635
711.56	1649
717.004	1631
722.442	1622
727.874	1622
733.301	1614
738.722	1605
744.137	1590
749.547	1599
754.951	1586
760.349	1590
765.741	1584
771.128	1594
776.509	1620
781.885	1617
787.254	1614
792.618	1627
797.977	1614
803.33	1593
808.677	1566
814.019	1580
819.355	1560
824.686	1537
830.011	1543
835.33	1541
840.644	1543
845.952	1533
851.255	1530
856.552	1538
861.844	1524
867.13	1517
872.41	1511
877.686	1509
882.955	1515
888.219	1488
893.478	1443
898.731	1437
903.979	1420
909.221	1428
914.458	1410
919.69	1405
924.916	1426
930.136	1404
935.351	1426
940.561	1415
945.766	1415
950.965	1418
956.158	1398
961.347	1385
966.529	1369
971.707	1350
976.879	1332
982.046	1312
987.208	1319
992.364	1312
997.515	1315
1002.66	1320
1007.801	1345
1012.936	1353
1018.066	1360
1023.19	1358
1028.309	1348
1033.423	1349
1038.532	1346
1043.636	1325
1048.734	1312
1053.827	1292
1058.915	1297
1063.998	1282
1069.075	1264
1074.147	1277
1079.214	1272
1084.276	1281
1089.333	1279
1094.385	1301
1099.431	1284
1104.472	1276
1109.509	1277
1114.54	1267
1119.565	1235
1124.586	1231
1129.602	1212
1134.613	1218
1139.618	1201
1144.619	1201
1149.614	1214
1154.604	1214
1159.589	1202
1164.57	1215
1169.545	1198
1174.515	1207
1179.48	1183
1184.44	1190
1189.395	1176
1194.345	1167
1199.29	1161
1204.23	1178
1209.165	1160
1214.095	1164
1219.021	1174
1223.941	1194
1228.856	1197
1233.766	1191
1238.672	1206
1243.572	1205
1248.467	1196
1253.358	1173
1258.244	1151
1263.124	1133
1268	1122
1272.871	1091
1277.737	1096
1282.599	1097
1287.455	1085
1292.306	1095
1297.153	1094
1301.995	1106
1306.832	1109
1311.664	1114
1316.491	1111
1321.314	1113
1326.132	1123
1330.945	1095
1335.753	1079
1340.556	1050
1345.354	1047
1350.148	1011
1354.937	999
1359.722	961
1364.501	932
1369.276	930
1374.046	904
1378.811	889
1383.572	884
1388.327	895
1393.079	878
1397.825	901
1402.567	892
1407.304	919
1412.036	921
1416.764	911
1421.487	934
1426.205	928
1430.919	915
1435.628	932
1440.333	948
1445.032	937
1449.727	958
1454.418	944
1459.104	952
1463.785	934
1468.462	910
1473.134	894
1477.802	878
1482.465	844
1487.123	828
1491.777	813
1496.426	797
1501.071	793
1505.711	779
1510.347	768
1514.978	764
1519.604	761
1524.226	756
1528.844	755
1533.457	743
1538.065	755
1542.669	745
1547.269	749
1551.864	756
1556.454	765
1561.041	777
1565.622	796
1570.199	781
1574.772	785
1579.34	808
1583.904	816
1588.464	842
1593.019	841
1597.569	843
1602.115	836
1606.657	826
1611.195	826
1615.728	816
1620.256	831
1624.78	849
1629.3	836
1633.816	828
1638.327	837
1642.834	826
1647.336	842
1651.834	832
1656.328	827
1660.817	825
1665.302	809
1669.783	801
1674.259	777
1678.732	759
1683.199	730
1687.663	702
1692.122	657
1696.577	631
1701.028	605
1705.474	556
1709.917	545
1714.355	533
1718.788	533
1723.218	539
1727.643	543
1732.064	533
1736.481	544
1740.893	524
1745.301	525
1749.705	521
1754.105	497
1758.501	470
1762.893	478
1767.28	482
1771.663	452
1776.042	454
1780.417	448
1784.787	430
1789.154	421
1793.516	413
1797.874	395
1802.228	406
1806.578	384
1810.924	382
1815.266	382
1819.603	388
1823.937	400
1828.266	391
1832.591	407
1836.913	405
1841.23	410
1845.543	404
1849.852	413
1854.156	428
1858.457	422
1862.754	418
1867.047	418
1871.335	417
1875.62	404
1879.9	399
1884.177	394
1888.449	395
1892.718	391
1896.982	381
1901.243	370
1905.499	369
1909.752	357
1914	355
1918.245	350
1922.485	340
1926.722	331
1930.954	326
1935.183	332
1939.408	327
1943.628	321
1947.845	319
1952.058	306
1956.267	308
1960.472	308
1964.673	302
1968.87	306
1973.063	302
1977.252	298
1981.438	306
1985.619	301
1989.797	309
1993.971	310
1998.14	311
2002.306	316
2006.469	321
2010.627	319
2014.781	324
2018.932	310
2023.078	319
2027.221	315
2031.36	315
2035.495	311
2039.627	304
2043.754	305
2047.878	297
2051.998	295
2056.114	302
2060.226	291
2064.334	287
2068.439	273
2072.54	281
2076.637	283
2080.73	275
2084.82	276
2088.906	271
2092.988	266
2097.066	256
2101.14	264
2105.211	249
2109.278	241
2113.342	241
2117.401	246
2121.457	239
2125.509	234
2129.558	239
2133.602	240
2137.643	235
2141.681	244
2145.714	242
2149.744	246
2153.77	245
2157.793	239
2161.812	259
2165.827	253
2169.838	232
2173.846	238
2177.851	231
2181.851	229
2185.848	224
2189.841	245
2193.831	227
2197.817	227
2201.799	226
2205.778	226
2209.753	233
2213.725	222
2217.693	228
2221.657	224
2225.618	228
2229.575	224
2233.529	219
2237.479	234
2241.425	213
2245.368	225
2249.307	217
2253.243	205
2257.175	203
2261.104	199
2265.029	199
2268.95	200
2272.868	204
2276.783	189
2280.694	186
2284.601	182
2288.505	191
2292.405	192
2296.302	189
2300.195	185
2304.085	183
2307.971	178
2311.854	178
2315.734	169
2319.609	184
2323.482	178
2327.351	176
2331.216	186
2335.078	200
2338.937	183
2342.792	177
2346.643	180
2350.492	179
2354.336	172
2358.178	175
2362.015	176
2365.85	177
2369.681	175
2373.508	180
2377.333	182
2381.153	180
2384.971	177
2388.785	172
2392.595	183
2396.402	181
2400.206	182
2404.007	171
2407.804	181
2411.597	173
2415.388	176
2419.174	177
2422.958	162
2426.738	169
2430.515	171
2434.289	175
2438.059	164
2441.825	162
2445.589	158
2449.349	156
2453.106	158
2456.859	156
2460.61	149
2464.356	151
2468.1	155
2471.84	151
2475.577	149
2479.311	148
2483.041	153
2486.768	143
2490.492	144
2494.213	134
2497.93	150
2501.644	144
2505.355	133
2509.062	133
2512.766	143
2516.467	132
2520.165	134
2523.859	139
2527.551	124
2531.239	127
2534.923	117
2538.605	120
2542.283	119
2545.958	116
2549.63	118
2553.299	114
2556.964	108
2560.626	112
2564.285	112
2567.941	111
2571.594	109
2575.243	112
2578.89	108
2582.533	99
2586.173	96
2589.809	102
2593.443	105
2597.073	93
2600.701	95
2604.325	93
2607.946	90
2611.564	93
2615.178	97
2618.79	97
2622.398	98
2626.004	94
2629.606	90
2633.205	93
2636.801	90
2640.394	95
2643.983	89
2647.57	86
2651.153	80
2654.734	85
2658.311	90
2661.885	84
2665.456	84
2669.025	84
2672.589	81
2676.151	83
2679.71	79
2683.266	77
2686.819	80
2690.368	76
2693.915	83
2697.458	77
2700.999	77
2704.536	73
2708.071	75
2711.602	66
2715.13	60
2718.656	67
2722.178	64
2725.697	59
2729.214	57
2732.727	66
2736.237	58
2739.744	48
2743.249	57
2746.75	51
2750.248	50
2753.743	56
2757.236	42
2760.725	44
2764.211	44
2767.695	35
2771.175	43
2774.652	38
2778.127	49
2781.598	41
2785.067	41
2788.532	42
2791.995	46
2795.455	34
2798.911	45
2802.365	50
2805.816	51
2809.264	43
2812.709	43
2816.151	46
2819.59	53
2823.026	45
2826.46	53
2829.89	48
2833.318	48
2836.742	53
2840.164	45
2843.583	42
2846.999	52
2850.412	47
2853.822	47
2857.229	50
2860.634	45
2864.035	50
2867.434	53
2870.83	59
2874.223	59
2877.613	52
2881	63
2884.385	63
2887.766	61
2891.145	62
2894.521	73
2897.894	61
2901.264	60
2904.631	59
2907.996	67
2911.358	77
2914.717	72
2918.073	76
2921.426	69
2924.777	72
2928.124	80
2931.469	79
2934.811	86
2938.15	93
2941.487	97
2944.821	86
2948.152	87
2951.48	80
2954.805	89
2958.128	82
2961.447	84
2964.765	79
2968.079	77
2971.39	74
2974.699	83
2978.005	84
2981.308	78
2984.609	79
2987.907	82
2991.202	80
2994.494	84
2997.784	72
3001.07	77
3004.355	82
3007.636	84
3010.915	89
3014.191	82
3017.464	85
3020.734	89
3024.002	92
3027.267	92
3030.53	94
3033.789	90
3037.046	104
3040.301	101
3043.552	105
3046.801	116
3050.048	111
3053.291	118
3056.532	120
3059.771	127
3063.006	136
3066.239	140
3069.469	144
3072.697	151
3075.922	157
3079.144	159
3082.364	165
3085.581	163
3088.795	164
3092.007	174
3095.216	176
3098.423	172
3101.627	170
3104.828	186
3108.026	184
3111.222	185
3114.416	192
3117.607	197
3120.795	208
3123.98	208
3127.163	222
3130.344	216
3133.521	220
3136.696	233
3139.869	235
3143.039	244
3146.206	242
3149.371	240
3152.533	256
3155.693	257
3158.85	248
3162.005	252
3165.157	249
3168.306	261
3171.453	253
3174.597	252
3177.739	257
3180.878	256
3184.014	247
3187.149	247
3190.28	258
3193.409	256
3196.536	254
3199.659	264
3202.781	262
3205.9	259
3209.016	263
3212.13	254
3215.241	261
3218.35	253
3221.456	256
3224.56	245
3227.661	248
3230.76	234
3233.856	236
3236.95	234
3240.041	229
3243.13	226
3246.216	215
3249.3	208
3252.382	207
3255.46	210
3258.537	209
3261.611	203
3264.682	208
3267.751	211
3270.818	191
3273.882	197
3276.943	201
3280.002	199
3283.059	198
3286.113	189
3289.165	181
3292.214	190
3295.261	187
3298.306	190
3301.348	189
3304.387	176
3307.425	184
3310.459	172
3313.492	180
3316.521	183
3319.549	186
3322.574	184
3325.597	174
3328.617	176
3331.635	181
3334.65	186
3337.663	178
3340.674	180
3343.682	187
3346.688	174
3349.691	181
3352.692	174
3355.691	184
3358.687	177
3361.681	175
3364.673	173
3367.662	172
3370.649	169
3373.633	160
3376.615	162
3379.595	157
3382.572	155
3385.547	153
3388.52	152
3391.49	147
3394.458	140
3397.424	147
3400.387	149
3403.348	138
3406.307	138
3409.263	135
3412.217	133
3415.168	143
3418.118	130
3421.065	127
3424.009	128
3426.951	118
3429.891	124
3432.829	115
3435.764	128
3438.697	111
3441.628	104
3444.557	104
3447.483	102
3450.407	87
3453.328	93
3456.247	90
3459.164	83
3462.079	69
3464.991	68
3467.902	68
3470.809	65
3473.715	67
3476.618	61
3479.519	54
3482.418	51
3485.315	50
3488.209	45
3491.101	39
3493.99	46
3496.878	40
3499.763	27
3502.646	30
3505.527	28
3508.405	23
3511.281	23
3514.155	16
3517.027	9
3519.897	15
3522.764	10
3525.629	9
3528.492	7
3531.352	1
3534.211	-1
3537.067	-2
3539.921	1
3542.773	-9
3545.622	-4
3548.469	-6
3551.315	-2
3554.157	-9
3556.998	-8
3559.837	-12
3562.673	-17
3565.507	-15
3568.339	-18
3571.169	-23
3573.996	-19
3576.822	-29
3579.645	-31
3582.466	-26
3585.285	-23
3588.101	-34
3590.916	-22
3593.728	-33
3596.538	-32
3599.346	-37
3602.152	-29
3604.956	-33
3607.757	-29
3610.556	-32
3613.354	-40
3616.149	-43
3618.942	-35
3621.732	-43
3624.521	-38
3627.307	-41
3630.092	-44
3632.874	-42
3635.654	-47
3638.432	-41
3641.208	-38
3643.982	-45
3646.753	-50
3649.523	-46
3652.29	-48
3655.055	-40
3657.818	-49
3660.579	-47
3663.338	-43
3666.095	-46
3668.849	-49
3671.602	-49
3674.352	-47
3677.101	-53
3679.847	-47
3682.591	-53
3685.333	-50
3688.073	-58
3690.811	-56
3693.547	-56
3696.281	-56
3699.013	-55
3701.742	-57
3704.47	-46
3707.195	-58
3709.919	-52
3712.64	-54
3715.359	-53
3718.076	-56
3720.792	-57
3723.505	-54
3726.216	-49
3728.925	-63
3731.632	-56
3734.336	-62
3737.039	-55
3739.74	-60
3742.439	-66
3745.136	-60
3747.83	-58
3750.523	-59
3753.213	-60
3755.902	-64
3758.589	-64
3761.273	-59
3763.956	-59
3766.636	-52
3769.315	-51
3771.991	-58
3774.665	-58
3777.338	-61
3780.008	-61
3782.677	-64
3785.343	-61
3788.007	-64
3790.67	-61
3793.33	-60
3795.989	-64
3798.645	-64
3801.299	-61
3803.952	-60
3806.602	-69
3809.251	-66
3811.897	-67
3814.542	-66
3817.184	-63
3819.825	-56
3822.463	-58
3825.1	-55
3827.735	-66
3830.367	-61
3832.998	-61
3835.627	-61
3838.253	-62
3840.878	-55
3843.501	-53
3846.122	-67
3848.741	-66
3851.358	-66
3853.973	-63
3856.586	-62
3859.197	-65
3861.806	-66
3864.414	-64
3867.019	-63
3869.622	-53
3872.224	-48
3874.823	-45
3877.421	-37
3880.016	-27
3882.61	-5
3885.202	-9
3887.792	-10
3890.38	-38
3892.966	-53
3895.55	-53
3898.132	-60
3900.713	-64
3903.291	-65
3905.868	-64
3908.442	-65
3911.015	-64
3913.586	-67
3916.155	-66
3918.722	-69
3921.287	-69
3923.85	-60
3926.411	-65
3928.971	-71
3931.528	-65
3934.084	-60
3936.638	-58
3939.19	-69
3941.74	-61
3944.288	-64
3946.834	-64
3949.378	-67
3951.921	-67
3954.462	-69
3957	-56
3959.537	-58
3962.072	-63
3964.606	-59
3967.137	-61
3969.667	-63
3972.194	-60
3974.72	-58
3977.244	-61
3979.766	-61
3982.286	-61
3984.805	-72
3987.321	-57
3989.836	-58
3992.349	-63
3994.86	-62
3997.369	-65
3999.877	-64
4002.382	-61
4004.886	-60
4007.388	-67
4009.888	-66
4012.386	-64
4014.883	-62
4017.377	-63
4019.87	-56
4022.361	-68
4024.85	-57
4027.338	-66
4029.823	-61
4032.307	-65
4034.789	-58
4037.269	-61
4039.747	-63
4042.224	-65
4044.699	-64
4047.172	-71
4049.643	-64
4052.112	-66
4054.58	-59
4057.046	-63
4059.51	-67
4061.972	-66
4064.432	-64
4066.891	-60
4069.348	-59
4071.803	-60
4074.256	-63
4076.708	-65
4079.158	-63
4081.606	-62
4084.052	-58
4086.497	-56
4088.939	-62
4091.38	-64
4093.819	-64
4096.257	-67
4098.693	-66
4101.127	-59
4103.559	-71
4105.989	2
4108.418	7
4110.845	0
4113.27	2
4115.694	1
4118.115	4
4120.535	-66
4122.954	-60
4125.37	-61
4127.785	-59
4130.198	-63
4132.609	-65
4135.019	-65
4137.427	-69
4139.833	-64
4142.237	-68
