Data from 2018-3-7_conc=5_n=10_RamanShift_04.txt Node
Date: Wed Mar 07 12:54:52 IST 2018
User: aro
Spectrometer: QEPB0276
Trigger mode: 0
Integration Time (sec): 3.000000E1
Scans to average: 1
Electric dark correction enabled: true
Nonlinearity correction enabled: false
Boxcar width: 0
XAxis mode: Raman Shifts
Number of Pixels in Spectrum: 1044
>>>>>Begin Spectral Data<<<<<
160.701	4
166.742	14
172.777	65
178.805	232
184.826	655
190.841	1424
196.849	2391
202.85	3177
208.845	3492
214.833	3471
220.815	3424
226.789	3411
232.758	3406
238.719	3411
244.674	3364
250.623	3334
256.565	3281
262.5	3236
268.429	3167
274.351	3142
280.267	3102
286.176	3105
292.079	3078
297.975	3084
303.865	3044
309.748	3036
315.625	3025
321.495	3029
327.359	3010
333.217	2993
339.068	3011
344.912	3015
350.751	3005
356.583	3008
362.408	3000
368.227	3015
374.04	3014
379.847	3026
385.647	3015
391.44	3010
397.228	3040
403.009	3048
408.784	3058
414.553	3079
420.315	3091
426.071	3073
431.821	3071
437.565	3062
443.302	3066
449.033	3063
454.758	3064
460.477	3050
466.189	3046
471.896	3020
477.596	3001
483.29	2991
488.978	2999
494.66	2993
500.335	2930
506.005	2894
511.668	2858
517.325	2768
522.977	2728
528.622	2708
534.261	2680
539.894	2645
545.521	2659
551.141	2611
556.756	2599
562.365	2598
567.968	2579
573.565	2566
579.155	2547
584.74	2537
590.319	2534
595.892	2523
601.459	2500
607.02	2507
612.575	2498
618.124	2464
623.667	2436
629.204	2417
634.735	2401
640.261	2405
645.781	2373
651.294	2407
656.802	2373
662.304	2384
667.8	2386
673.29	2380
678.775	2377
684.254	2366
689.726	2354
695.193	2340
700.655	2327
706.11	2319
711.56	2308
717.004	2285
722.442	2272
727.874	2279
733.301	2265
738.722	2259
744.137	2250
749.547	2262
754.951	2243
760.349	2249
765.741	2255
771.128	2271
776.509	2266
781.885	2269
787.254	2265
792.618	2269
797.977	2229
803.33	2214
808.677	2208
814.019	2203
819.355	2184
824.686	2174
830.011	2163
835.33	2186
840.644	2160
845.952	2171
851.255	2153
856.552	2167
861.844	2155
867.13	2160
872.41	2140
877.686	2150
882.955	2110
888.219	2083
893.478	2064
898.731	2026
903.979	2026
909.221	2003
914.458	2002
919.69	2009
924.916	2023
930.136	2021
935.351	2012
940.561	2016
945.766	2030
950.965	2007
956.158	1989
961.347	1963
966.529	1942
971.707	1913
976.879	1895
982.046	1884
987.208	1853
992.364	1869
997.515	1880
1002.66	1866
1007.801	1904
1012.936	1913
1018.066	1921
1023.19	1935
1028.309	1917
1033.423	1909
1038.532	1899
1043.636	1871
1048.734	1867
1053.827	1853
1058.915	1814
1063.998	1797
1069.075	1796
1074.147	1810
1079.214	1824
1084.276	1830
1089.333	1829
1094.385	1832
1099.431	1837
1104.472	1833
1109.509	1812
1114.54	1782
1119.565	1759
1124.586	1762
1129.602	1738
1134.613	1718
1139.618	1716
1144.619	1714
1149.614	1722
1154.604	1701
1159.589	1715
1164.57	1733
1169.545	1717
1174.515	1728
1179.48	1710
1184.44	1705
1189.395	1692
1194.345	1675
1199.29	1648
1204.23	1667
1209.165	1668
1214.095	1698
1219.021	1679
1223.941	1708
1228.856	1701
1233.766	1719
1238.672	1734
1243.572	1729
1248.467	1706
1253.358	1678
1258.244	1669
1263.124	1615
1268	1613
1272.871	1573
1277.737	1562
1282.599	1578
1287.455	1566
1292.306	1573
1297.153	1587
1301.995	1593
1306.832	1587
1311.664	1602
1316.491	1607
1321.314	1604
1326.132	1583
1330.945	1554
1335.753	1544
1340.556	1498
1345.354	1483
1350.148	1447
1354.937	1408
1359.722	1341
1364.501	1318
1369.276	1281
1374.046	1257
1378.811	1240
1383.572	1262
1388.327	1259
1393.079	1275
1397.825	1310
1402.567	1306
1407.304	1321
1412.036	1339
1416.764	1302
1421.487	1339
1426.205	1326
1430.919	1328
1435.628	1343
1440.333	1365
1445.032	1355
1449.727	1378
1454.418	1376
1459.104	1349
1463.785	1331
1468.462	1292
1473.134	1260
1477.802	1221
1482.465	1198
1487.123	1161
1491.777	1136
1496.426	1112
1501.071	1107
1505.711	1081
1510.347	1077
1514.978	1068
1519.604	1060
1524.226	1070
1528.844	1059
1533.457	1055
1538.065	1053
1542.669	1050
1547.269	1047
1551.864	1072
1556.454	1085
1561.041	1107
1565.622	1108
1570.199	1118
1574.772	1143
1579.34	1138
1583.904	1167
1588.464	1202
1593.019	1197
1597.569	1192
1602.115	1193
1606.657	1197
1611.195	1189
1615.728	1188
1620.256	1173
1624.78	1162
1629.3	1194
1633.816	1177
1638.327	1182
1642.834	1180
1647.336	1166
1651.834	1172
1656.328	1159
1660.817	1148
1665.302	1132
1669.783	1109
1674.259	1096
1678.732	1045
1683.199	1006
1687.663	966
1692.122	900
1696.577	849
1701.028	788
1705.474	746
1709.917	728
1714.355	733
1718.788	740
1723.218	746
1727.643	752
1732.064	756
1736.481	753
1740.893	732
1745.301	741
1749.705	717
1754.105	696
1758.501	677
1762.893	661
1767.28	651
1771.663	649
1776.042	632
1780.417	619
1784.787	604
1789.154	583
1793.516	565
1797.874	542
1802.228	542
1806.578	527
1810.924	531
1815.266	539
1819.603	552
1823.937	556
1828.266	555
1832.591	580
1836.913	571
1841.23	577
1845.543	565
1849.852	569
1854.156	587
1858.457	584
1862.754	585
1867.047	568
1871.335	577
1875.62	577
1879.9	571
1884.177	556
1888.449	546
1892.718	550
1896.982	527
1901.243	500
1905.499	494
1909.752	485
1914	485
1918.245	466
1922.485	441
1926.722	438
1930.954	425
1935.183	429
1939.408	412
1943.628	412
1947.845	417
1952.058	412
1956.267	400
1960.472	411
1964.673	404
1968.87	414
1973.063	425
1977.252	415
1981.438	431
1985.619	423
1989.797	428
1993.971	443
1998.14	435
2002.306	440
2006.469	450
2010.627	447
2014.781	457
2018.932	453
2023.078	454
2027.221	447
2031.36	445
2035.495	429
2039.627	418
2043.754	418
2047.878	422
2051.998	410
2056.114	401
2060.226	389
2064.334	385
2068.439	388
2072.54	380
2076.637	379
2080.73	369
2084.82	365
2088.906	362
2092.988	357
2097.066	348
2101.14	348
2105.211	343
2109.278	339
2113.342	327
2117.401	341
2121.457	333
2125.509	334
2129.558	332
2133.602	335
2137.643	334
2141.681	333
2145.714	343
2149.744	347
2153.77	350
2157.793	353
2161.812	359
2165.827	355
2169.838	350
2173.846	334
2177.851	336
2181.851	342
2185.848	337
2189.841	328
2193.831	329
2197.817	338
2201.799	327
2205.778	335
2209.753	328
2213.725	328
2217.693	337
2221.657	337
2225.618	323
2229.575	322
2233.529	331
2237.479	329
2241.425	327
2245.368	320
2249.307	318
2253.243	301
2257.175	309
2261.104	292
2265.029	300
2268.95	297
2272.868	303
2276.783	279
2280.694	271
2284.601	276
2288.505	278
2292.405	283
2296.302	286
2300.195	279
2304.085	269
2307.971	269
2311.854	268
2315.734	261
2319.609	269
2323.482	266
2327.351	268
2331.216	273
2335.078	271
2338.937	273
2342.792	269
2346.643	273
2350.492	268
2354.336	268
2358.178	258
2362.015	273
2365.85	271
2369.681	272
2373.508	267
2377.333	282
2381.153	279
2384.971	269
2388.785	269
2392.595	271
2396.402	284
2400.206	272
2404.007	270
2407.804	276
2411.597	270
2415.388	268
2419.174	278
2422.958	263
2426.738	272
2430.515	269
2434.289	266
2438.059	261
2441.825	256
2445.589	248
2449.349	251
2453.106	251
2456.859	249
2460.61	239
2464.356	242
2468.1	242
2471.84	235
2475.577	234
2479.311	234
2483.041	229
2486.768	225
2490.492	226
2494.213	232
2497.93	222
2501.644	221
2505.355	216
2509.062	216
2512.766	212
2516.467	200
2520.165	201
2523.859	212
2527.551	201
2531.239	192
2534.923	190
2538.605	189
2542.283	175
2545.958	182
2549.63	175
2553.299	176
2556.964	171
2560.626	176
2564.285	172
2567.941	163
2571.594	166
2575.243	176
2578.89	156
2582.533	163
2586.173	163
2589.809	165
2593.443	165
2597.073	158
2600.701	152
2604.325	141
2607.946	142
2611.564	152
2615.178	152
2618.79	145
2622.398	155
2626.004	153
2629.606	152
2633.205	143
2636.801	148
2640.394	146
2643.983	148
2647.57	148
2651.153	139
2654.734	142
2658.311	148
2661.885	140
2665.456	139
2669.025	149
2672.589	137
2676.151	134
2679.71	132
2683.266	135
2686.819	139
2690.368	129
2693.915	131
2697.458	129
2700.999	137
2704.536	127
2708.071	123
2711.602	119
2715.13	111
2718.656	116
2722.178	105
2725.697	100
2729.214	100
2732.727	102
2736.237	101
2739.744	92
2743.249	87
2746.75	90
2750.248	85
2753.743	82
2757.236	70
2760.725	70
2764.211	76
2767.695	66
2771.175	65
2774.652	69
2778.127	70
2781.598	70
2785.067	67
2788.532	76
2791.995	79
2795.455	71
2798.911	74
2802.365	76
2805.816	85
2809.264	85
2812.709	78
2816.151	79
2819.59	94
2823.026	83
2826.46	79
2829.89	80
2833.318	78
2836.742	79
2840.164	74
2843.583	77
2846.999	80
2850.412	81
2853.822	76
2857.229	89
2860.634	75
2864.035	79
2867.434	85
2870.83	100
2874.223	97
2877.613	93
2881	104
2884.385	105
2887.766	108
2891.145	117
2894.521	115
2897.894	110
2901.264	101
2904.631	112
2907.996	106
2911.358	124
2914.717	115
2918.073	108
2921.426	120
2924.777	126
2928.124	120
2931.469	129
2934.811	141
2938.15	135
2941.487	148
2944.821	134
2948.152	136
2951.48	134
2954.805	136
2958.128	128
2961.447	135
2964.765	129
2968.079	128
2971.39	123
2974.699	124
2978.005	128
2981.308	119
2984.609	121
2987.907	130
2991.202	127
2994.494	116
2997.784	120
3001.07	118
3004.355	127
3007.636	124
3010.915	128
3014.191	125
3017.464	133
3020.734	134
3024.002	145
3027.267	139
3030.53	148
3033.789	156
3037.046	160
3040.301	154
3043.552	166
3046.801	171
3050.048	175
3053.291	181
3056.532	186
3059.771	191
3063.006	198
3066.239	205
3069.469	221
3072.697	218
3075.922	216
3079.144	224
3082.364	229
3085.581	235
3088.795	240
3092.007	245
3095.216	250
3098.423	247
3101.627	256
3104.828	271
3108.026	265
3111.222	272
3114.416	282
3117.607	291
3120.795	288
3123.98	290
3127.163	319
3130.344	310
3133.521	316
3136.696	314
3139.869	324
3143.039	326
3146.206	343
3149.371	341
3152.533	351
3155.693	348
3158.85	350
3162.005	356
3165.157	350
3168.306	347
3171.453	357
3174.597	364
3177.739	364
3180.878	360
3184.014	355
3187.149	366
3190.28	365
3193.409	367
3196.536	372
3199.659	374
3202.781	371
3205.9	363
3209.016	364
3212.13	367
3215.241	366
3218.35	361
3221.456	357
3224.56	340
3227.661	337
3230.76	335
3233.856	332
3236.95	314
3240.041	324
3243.13	319
3246.216	311
3249.3	301
3252.382	307
3255.46	296
3258.537	293
3261.611	293
3264.682	292
3267.751	287
3270.818	270
3273.882	282
3276.943	281
3280.002	284
3283.059	270
3286.113	267
3289.165	268
3292.214	277
3295.261	267
3298.306	270
3301.348	271
3304.387	264
3307.425	265
3310.459	263
3313.492	263
3316.521	267
3319.549	275
3322.574	261
3325.597	258
3328.617	255
3331.635	271
3334.65	268
3337.663	252
3340.674	261
3343.682	267
3346.688	252
3349.691	253
3352.692	258
3355.691	259
3358.687	258
3361.681	250
3364.673	251
3367.662	246
3370.649	245
3373.633	239
3376.615	232
3379.595	231
3382.572	224
3385.547	226
3388.52	218
3391.49	209
3394.458	203
3397.424	212
3400.387	202
3403.348	199
3406.307	198
3409.263	202
3412.217	192
3415.168	193
3418.118	191
3421.065	182
3424.009	176
3426.951	173
3429.891	181
3432.829	178
3435.764	168
3438.697	164
3441.628	148
3444.557	151
3447.483	152
3450.407	132
3453.328	131
3456.247	129
3459.164	121
3462.079	116
3464.991	115
3467.902	101
3470.809	103
3473.715	96
3476.618	87
3479.519	76
3482.418	79
3485.315	74
3488.209	67
3491.101	61
3493.99	67
3496.878	54
3499.763	55
3502.646	54
3505.527	42
3508.405	44
3511.281	46
3514.155	38
3517.027	27
3519.897	32
3522.764	27
3525.629	16
3528.492	15
3531.352	5
3534.211	7
3537.067	2
3539.921	7
3542.773	-3
3545.622	0
3548.469	-2
3551.315	0
3554.157	-7
3556.998	-8
3559.837	-11
3562.673	-12
3565.507	-13
3568.339	-12
3571.169	-22
3573.996	-15
3576.822	-30
3579.645	-32
3582.466	-27
3585.285	-26
3588.101	-31
3590.916	-34
3593.728	-36
3596.538	-43
3599.346	-37
3602.152	-34
3604.956	-33
3607.757	-34
3610.556	-36
3613.354	-43
3616.149	-45
3618.942	-40
3621.732	-48
3624.521	-39
3627.307	-40
3630.092	-44
3632.874	-50
3635.654	-49
3638.432	-48
3641.208	-50
3643.982	-46
3646.753	-54
3649.523	-52
3652.29	-48
3655.055	-55
3657.818	-57
3660.579	-57
3663.338	-49
3666.095	-56
3668.849	-55
3671.602	-56
3674.352	-60
3677.101	-55
3679.847	-59
3682.591	-58
3685.333	-54
3688.073	-60
3690.811	-57
3693.547	-61
3696.281	-62
3699.013	-63
3701.742	-67
3704.47	-59
3707.195	-65
3709.919	-64
3712.64	-69
3715.359	-64
3718.076	-65
3720.792	-68
3723.505	-71
3726.216	-59
3728.925	-70
3731.632	-65
3734.336	-66
3737.039	-67
3739.74	-69
3742.439	-81
3745.136	-70
3747.83	-70
3750.523	-72
3753.213	-78
3755.902	-71
3758.589	-70
3761.273	-66
3763.956	-76
3766.636	-65
3769.315	-67
3771.991	-71
3774.665	-74
3777.338	-73
3780.008	-73
3782.677	-77
3785.343	-70
3788.007	-72
3790.67	-72
3793.33	-65
3795.989	-75
3798.645	-71
3801.299	-71
3803.952	-72
3806.602	-73
3809.251	-75
3811.897	-72
3814.542	-77
3817.184	-75
3819.825	-66
3822.463	-75
3825.1	-70
3827.735	-80
3830.367	-78
3832.998	-79
3835.627	-71
3838.253	-73
3840.878	-70
3843.501	-69
3846.122	-81
3848.741	-76
3851.358	-75
3853.973	-72
3856.586	-69
3859.197	-69
3861.806	-75
3864.414	-75
3867.019	-78
3869.622	-69
3872.224	-66
3874.823	-54
3877.421	-58
3880.016	-44
3882.61	-31
3885.202	-36
3887.792	-42
3890.38	-53
3892.966	-71
3895.55	-72
3898.132	-79
3900.713	-79
3903.291	-77
3905.868	-74
3908.442	-75
3911.015	-74
3913.586	-81
3916.155	-76
3918.722	-76
3921.287	-73
3923.85	-65
3926.411	-80
3928.971	-87
3931.528	-74
3934.084	-75
3936.638	-71
3939.19	-82
3941.74	-74
3944.288	-78
3946.834	-76
3949.378	-80
3951.921	-82
3954.462	-79
3957	-73
3959.537	-67
3962.072	-74
3964.606	-77
3967.137	-71
3969.667	-71
3972.194	-73
3974.72	-66
3977.244	-68
3979.766	-73
3982.286	-73
3984.805	-78
3987.321	-70
3989.836	-72
3992.349	-74
3994.86	-80
3997.369	-74
3999.877	-75
4002.382	-78
4004.886	-71
4007.388	-78
4009.888	-76
4012.386	-75
4014.883	-73
4017.377	-77
4019.87	-76
4022.361	-81
4024.85	-74
4027.338	-74
4029.823	-74
4032.307	-75
4034.789	-74
4037.269	-73
4039.747	-74
4042.224	-73
4044.699	-77
4047.172	-78
4049.643	-79
4052.112	-74
4054.58	-77
4057.046	-72
4059.51	-77
4061.972	-80
4064.432	-78
4066.891	-75
4069.348	-71
4071.803	-68
4074.256	-73
4076.708	-73
4079.158	-76
4081.606	-76
4084.052	-73
4086.497	-72
4088.939	-71
4091.38	-78
4093.819	-74
4096.257	-75
4098.693	-76
4101.127	-72
4103.559	-81
4105.989	-17
4108.418	-16
4110.845	-19
4113.27	-17
4115.694	-4
4118.115	-1
4120.535	-74
4122.954	-73
4125.37	-70
4127.785	-75
4130.198	-75
4132.609	-78
4135.019	-77
4137.427	-81
4139.833	-76
4142.237	-81
