Data from 2018-3-7_conc=6_n=9_RamanShift_02.txt Node
Date: Wed Mar 07 13:23:21 IST 2018
User: aro
Spectrometer: QEPB0276
Trigger mode: 0
Integration Time (sec): 3.000000E1
Scans to average: 1
Electric dark correction enabled: true
Nonlinearity correction enabled: false
Boxcar width: 0
XAxis mode: Raman Shifts
Number of Pixels in Spectrum: 1044
>>>>>Begin Spectral Data<<<<<
160.701	9
166.742	24
172.777	53
178.805	148
184.826	399
190.841	841
196.849	1391
202.85	1827
208.845	2021
214.833	2025
220.815	1981
226.789	1982
232.758	1983
238.719	1975
244.674	1954
250.623	1955
256.565	1922
262.5	1892
268.429	1866
274.351	1859
280.267	1843
286.176	1824
292.079	1819
297.975	1832
303.865	1816
309.748	1809
315.625	1801
321.495	1810
327.359	1815
333.217	1808
339.068	1803
344.912	1812
350.751	1801
356.583	1804
362.408	1792
368.227	1814
374.04	1816
379.847	1822
385.647	1827
391.44	1847
397.228	1848
403.009	1849
408.784	1843
414.553	1878
420.315	1860
426.071	1870
431.821	1871
437.565	1879
443.302	1869
449.033	1877
454.758	1864
460.477	1839
466.189	1836
471.896	1835
477.596	1820
483.29	1813
488.978	1797
494.66	1789
500.335	1754
506.005	1715
511.668	1668
517.325	1615
522.977	1554
528.622	1536
534.261	1521
539.894	1481
545.521	1487
551.141	1469
556.756	1460
562.365	1437
567.968	1432
573.565	1424
579.155	1434
584.74	1416
590.319	1417
595.892	1406
601.459	1405
607.02	1404
612.575	1394
618.124	1378
623.667	1366
629.204	1345
634.735	1322
640.261	1322
645.781	1329
651.294	1332
656.802	1305
662.304	1314
667.8	1304
673.29	1311
678.775	1302
684.254	1299
689.726	1289
695.193	1293
700.655	1260
706.11	1266
711.56	1265
717.004	1254
722.442	1239
727.874	1255
733.301	1244
738.722	1232
744.137	1220
749.547	1238
754.951	1228
760.349	1227
765.741	1238
771.128	1234
776.509	1237
781.885	1267
787.254	1255
792.618	1280
797.977	1236
803.33	1255
808.677	1235
814.019	1224
819.355	1218
824.686	1196
830.011	1208
835.33	1204
840.644	1189
845.952	1198
851.255	1183
856.552	1186
861.844	1184
867.13	1167
872.41	1166
877.686	1178
882.955	1163
888.219	1134
893.478	1132
898.731	1112
903.979	1091
909.221	1096
914.458	1075
919.69	1075
924.916	1091
930.136	1086
935.351	1080
940.561	1094
945.766	1094
950.965	1093
956.158	1075
961.347	1070
966.529	1051
971.707	1018
976.879	1028
982.046	996
987.208	1007
992.364	1001
997.515	1005
1002.66	1015
1007.801	1021
1012.936	1034
1018.066	1037
1023.19	1036
1028.309	1016
1033.423	1031
1038.532	1017
1043.636	1013
1048.734	1015
1053.827	1004
1058.915	981
1063.998	976
1069.075	974
1074.147	966
1079.214	989
1084.276	978
1089.333	995
1094.385	990
1099.431	972
1104.472	985
1109.509	973
1114.54	968
1119.565	949
1124.586	940
1129.602	935
1134.613	920
1139.618	905
1144.619	907
1149.614	913
1154.604	907
1159.589	910
1164.57	919
1169.545	934
1174.515	943
1179.48	936
1184.44	918
1189.395	899
1194.345	886
1199.29	881
1204.23	891
1209.165	894
1214.095	892
1219.021	892
1223.941	906
1228.856	917
1233.766	918
1238.672	911
1243.572	913
1248.467	908
1253.358	884
1258.244	893
1263.124	867
1268	852
1272.871	844
1277.737	845
1282.599	839
1287.455	851
1292.306	841
1297.153	836
1301.995	858
1306.832	853
1311.664	849
1316.491	851
1321.314	835
1326.132	857
1330.945	834
1335.753	817
1340.556	790
1345.354	782
1350.148	785
1354.937	753
1359.722	738
1364.501	723
1369.276	709
1374.046	707
1378.811	688
1383.572	689
1388.327	683
1393.079	686
1397.825	684
1402.567	688
1407.304	712
1412.036	693
1416.764	702
1421.487	704
1426.205	700
1430.919	696
1435.628	714
1440.333	715
1445.032	730
1449.727	729
1454.418	737
1459.104	728
1463.785	708
1468.462	698
1473.134	681
1477.802	663
1482.465	650
1487.123	641
1491.777	624
1496.426	616
1501.071	605
1505.711	604
1510.347	594
1514.978	588
1519.604	581
1524.226	587
1528.844	583
1533.457	579
1538.065	567
1542.669	579
1547.269	572
1551.864	580
1556.454	584
1561.041	609
1565.622	608
1570.199	604
1574.772	608
1579.34	615
1583.904	626
1588.464	624
1593.019	633
1597.569	640
1602.115	634
1606.657	635
1611.195	633
1615.728	624
1620.256	632
1624.78	631
1629.3	628
1633.816	629
1638.327	644
1642.834	618
1647.336	630
1651.834	631
1656.328	637
1660.817	627
1665.302	613
1669.783	607
1674.259	605
1678.732	584
1683.199	559
1687.663	545
1692.122	505
1696.577	489
1701.028	469
1705.474	440
1709.917	417
1714.355	411
1718.788	412
1723.218	407
1727.643	416
1732.064	421
1736.481	412
1740.893	409
1745.301	402
1749.705	392
1754.105	388
1758.501	370
1762.893	367
1767.28	357
1771.663	358
1776.042	364
1780.417	351
1784.787	338
1789.154	327
1793.516	325
1797.874	313
1802.228	308
1806.578	303
1810.924	299
1815.266	303
1819.603	300
1823.937	303
1828.266	291
1832.591	318
1836.913	314
1841.23	307
1845.543	309
1849.852	313
1854.156	324
1858.457	314
1862.754	316
1867.047	316
1871.335	324
1875.62	320
1879.9	320
1884.177	306
1888.449	317
1892.718	304
1896.982	297
1901.243	286
1905.499	289
1909.752	276
1914	278
1918.245	267
1922.485	262
1926.722	260
1930.954	255
1935.183	259
1939.408	258
1943.628	247
1947.845	249
1952.058	236
1956.267	235
1960.472	238
1964.673	226
1968.87	234
1973.063	240
1977.252	230
1981.438	234
1985.619	234
1989.797	235
1993.971	248
1998.14	241
2002.306	247
2006.469	246
2010.627	243
2014.781	242
2018.932	233
2023.078	247
2027.221	244
2031.36	239
2035.495	232
2039.627	222
2043.754	229
2047.878	226
2051.998	228
2056.114	224
2060.226	222
2064.334	219
2068.439	211
2072.54	216
2076.637	219
2080.73	207
2084.82	211
2088.906	209
2092.988	208
2097.066	200
2101.14	201
2105.211	202
2109.278	197
2113.342	191
2117.401	195
2121.457	186
2125.509	182
2129.558	186
2133.602	181
2137.643	180
2141.681	181
2145.714	184
2149.744	186
2153.77	190
2157.793	186
2161.812	192
2165.827	184
2169.838	184
2173.846	181
2177.851	182
2181.851	185
2185.848	178
2189.841	169
2193.831	176
2197.817	179
2201.799	173
2205.778	176
2209.753	179
2213.725	174
2217.693	174
2221.657	171
2225.618	164
2229.575	171
2233.529	166
2237.479	166
2241.425	159
2245.368	168
2249.307	160
2253.243	150
2257.175	159
2261.104	152
2265.029	153
2268.95	152
2272.868	144
2276.783	145
2280.694	142
2284.601	140
2288.505	145
2292.405	142
2296.302	150
2300.195	138
2304.085	133
2307.971	133
2311.854	132
2315.734	131
2319.609	132
2323.482	129
2327.351	133
2331.216	137
2335.078	135
2338.937	135
2342.792	130
2346.643	131
2350.492	130
2354.336	133
2358.178	124
2362.015	132
2365.85	126
2369.681	139
2373.508	139
2377.333	137
2381.153	133
2384.971	141
2388.785	123
2392.595	132
2396.402	132
2400.206	138
2404.007	132
2407.804	124
2411.597	125
2415.388	132
2419.174	135
2422.958	121
2426.738	124
2430.515	125
2434.289	126
2438.059	123
2441.825	123
2445.589	116
2449.349	123
2453.106	118
2456.859	112
2460.61	117
2464.356	115
2468.1	114
2471.84	108
2475.577	112
2479.311	112
2483.041	107
2486.768	109
2490.492	104
2494.213	101
2497.93	107
2501.644	105
2505.355	92
2509.062	95
2512.766	96
2516.467	94
2520.165	94
2523.859	95
2527.551	89
2531.239	91
2534.923	90
2538.605	82
2542.283	85
2545.958	79
2549.63	86
2553.299	87
2556.964	76
2560.626	80
2564.285	86
2567.941	77
2571.594	79
2575.243	75
2578.89	78
2582.533	63
2586.173	65
2589.809	77
2593.443	74
2597.073	66
2600.701	70
2604.325	63
2607.946	54
2611.564	71
2615.178	64
2618.79	66
2622.398	69
2626.004	67
2629.606	58
2633.205	70
2636.801	65
2640.394	69
2643.983	61
2647.57	59
2651.153	57
2654.734	62
2658.311	60
2661.885	56
2665.456	64
2669.025	59
2672.589	51
2676.151	52
2679.71	53
2683.266	48
2686.819	56
2690.368	52
2693.915	51
2697.458	49
2700.999	52
2704.536	56
2708.071	53
2711.602	45
2715.13	45
2718.656	44
2722.178	46
2725.697	47
2729.214	43
2732.727	45
2736.237	45
2739.744	34
2743.249	37
2746.75	35
2750.248	39
2753.743	30
2757.236	34
2760.725	31
2764.211	26
2767.695	25
2771.175	23
2774.652	27
2778.127	33
2781.598	24
2785.067	23
2788.532	29
2791.995	34
2795.455	27
2798.911	28
2802.365	28
2805.816	32
2809.264	29
2812.709	28
2816.151	30
2819.59	41
2823.026	29
2826.46	34
2829.89	29
2833.318	28
2836.742	35
2840.164	28
2843.583	29
2846.999	40
2850.412	34
2853.822	32
2857.229	43
2860.634	34
2864.035	38
2867.434	29
2870.83	41
2874.223	40
2877.613	39
2881	39
2884.385	44
2887.766	47
2891.145	39
2894.521	45
2897.894	41
2901.264	35
2904.631	41
2907.996	40
2911.358	51
2914.717	43
2918.073	48
2921.426	44
2924.777	54
2928.124	50
2931.469	55
2934.811	66
2938.15	61
2941.487	70
2944.821	63
2948.152	59
2951.48	53
2954.805	59
2958.128	58
2961.447	56
2964.765	53
2968.079	48
2971.39	48
2974.699	52
2978.005	55
2981.308	52
2984.609	51
2987.907	51
2991.202	58
2994.494	56
2997.784	43
3001.07	50
3004.355	56
3007.636	65
3010.915	60
3014.191	62
3017.464	59
3020.734	64
3024.002	65
3027.267	71
3030.53	68
3033.789	74
3037.046	67
3040.301	70
3043.552	71
3046.801	67
3050.048	82
3053.291	85
3056.532	81
3059.771	87
3063.006	94
3066.239	97
3069.469	111
3072.697	108
3075.922	115
3079.144	109
3082.364	115
3085.581	106
3088.795	123
3092.007	126
3095.216	118
3098.423	130
3101.627	124
3104.828	139
3108.026	139
3111.222	135
3114.416	141
3117.607	142
3120.795	150
3123.98	151
3127.163	162
3130.344	165
3133.521	167
3136.696	172
3139.869	174
3143.039	174
3146.206	176
3149.371	171
3152.533	187
3155.693	194
3158.85	190
3162.005	186
3165.157	187
3168.306	185
3171.453	190
3174.597	190
3177.739	187
3180.878	195
3184.014	186
3187.149	187
3190.28	190
3193.409	187
3196.536	189
3199.659	189
3202.781	196
3205.9	193
3209.016	189
3212.13	196
3215.241	192
3218.35	185
3221.456	185
3224.56	183
3227.661	186
3230.76	182
3233.856	180
3236.95	170
3240.041	165
3243.13	168
3246.216	160
3249.3	153
3252.382	151
3255.46	163
3258.537	148
3261.611	156
3264.682	153
3267.751	144
3270.818	136
3273.882	145
3276.943	149
3280.002	148
3283.059	142
3286.113	144
3289.165	136
3292.214	142
3295.261	141
3298.306	131
3301.348	136
3304.387	129
3307.425	131
3310.459	125
3313.492	130
3316.521	127
3319.549	137
3322.574	127
3325.597	127
3328.617	123
3331.635	124
3334.65	140
3337.663	116
3340.674	126
3343.682	129
3346.688	125
3349.691	133
3352.692	133
3355.691	134
3358.687	128
3361.681	130
3364.673	126
3367.662	132
3370.649	125
3373.633	118
3376.615	119
3379.595	111
3382.572	108
3385.547	114
3388.52	106
3391.49	104
3394.458	97
3397.424	108
3400.387	99
3403.348	95
3406.307	96
3409.263	100
3412.217	96
3415.168	94
3418.118	99
3421.065	88
3424.009	85
3426.951	84
3429.891	82
3432.829	82
3435.764	89
3438.697	75
3441.628	73
3444.557	78
3447.483	73
3450.407	62
3453.328	63
3456.247	57
3459.164	57
3462.079	46
3464.991	51
3467.902	45
3470.809	42
3473.715	42
3476.618	35
3479.519	25
3482.418	41
3485.315	31
3488.209	27
3491.101	23
3493.99	24
3496.878	22
3499.763	17
3502.646	24
3505.527	19
3508.405	14
3511.281	11
3514.155	10
3517.027	5
3519.897	8
3522.764	6
3525.629	3
3528.492	-5
3531.352	-5
3534.211	-6
3537.067	-9
3539.921	-9
3542.773	-18
3545.622	-11
3548.469	-8
3551.315	-13
3554.157	-16
3556.998	-15
3559.837	-16
3562.673	-18
3565.507	-17
3568.339	-14
3571.169	-16
3573.996	-19
3576.822	-28
3579.645	-24
3582.466	-24
3585.285	-25
3588.101	-30
3590.916	-26
3593.728	-29
3596.538	-32
3599.346	-37
3602.152	-34
3604.956	-33
3607.757	-29
3610.556	-34
3613.354	-39
3616.149	-41
3618.942	-32
3621.732	-39
3624.521	-39
3627.307	-35
3630.092	-34
3632.874	-40
3635.654	-37
3638.432	-37
3641.208	-41
3643.982	-36
3646.753	-39
3649.523	-35
3652.29	-42
3655.055	-37
3657.818	-45
3660.579	-49
3663.338	-41
3666.095	-45
3668.849	-47
3671.602	-44
3674.352	-42
3677.101	-43
3679.847	-39
3682.591	-50
3685.333	-45
3688.073	-51
3690.811	-52
3693.547	-49
3696.281	-50
3699.013	-46
3701.742	-50
3704.47	-45
3707.195	-44
3709.919	-45
3712.64	-47
3715.359	-49
3718.076	-46
3720.792	-48
3723.505	-53
3726.216	-44
3728.925	-55
3731.632	-52
3734.336	-54
3737.039	-47
3739.74	-55
3742.439	-65
3745.136	-51
3747.83	-55
3750.523	-59
3753.213	-61
3755.902	-52
3758.589	-54
3761.273	-51
3763.956	-56
3766.636	-47
3769.315	-51
3771.991	-52
3774.665	-53
3777.338	-50
3780.008	-50
3782.677	-60
3785.343	-56
3788.007	-52
3790.67	-54
3793.33	-56
3795.989	-56
3798.645	-53
3801.299	-55
3803.952	-56
3806.602	-60
3809.251	-57
3811.897	-59
3814.542	-57
3817.184	-54
3819.825	-48
3822.463	-54
3825.1	-47
3827.735	-65
3830.367	-48
3832.998	-56
3835.627	-54
3838.253	-49
3840.878	-47
3843.501	-51
3846.122	-58
3848.741	-63
3851.358	-60
3853.973	-53
3856.586	-55
3859.197	-57
3861.806	-55
3864.414	-58
3867.019	-55
3869.622	-49
3872.224	-39
3874.823	-32
3877.421	-28
3880.016	-15
3882.61	5
3885.202	6
3887.792	2
3890.38	-17
3892.966	-39
3895.55	-48
3898.132	-52
3900.713	-57
3903.291	-57
3905.868	-54
3908.442	-58
3911.015	-59
3913.586	-63
3916.155	-56
3918.722	-58
3921.287	-57
3923.85	-54
3926.411	-54
3928.971	-63
3931.528	-57
3934.084	-52
3936.638	-54
3939.19	-59
3941.74	-53
3944.288	-53
3946.834	-57
3949.378	-55
3951.921	-58
3954.462	-57
3957	-51
3959.537	-47
3962.072	-55
3964.606	-51
3967.137	-55
3969.667	-61
3972.194	-54
3974.72	-55
3977.244	-56
3979.766	-54
3982.286	-59
3984.805	-61
3987.321	-48
3989.836	-49
3992.349	-54
3994.86	-60
3997.369	-56
3999.877	-59
4002.382	-55
4004.886	-51
4007.388	-57
4009.888	-50
4012.386	-58
4014.883	-60
4017.377	-52
4019.87	-54
4022.361	-59
4024.85	-52
4027.338	-59
4029.823	-60
4032.307	-57
4034.789	-56
4037.269	-53
4039.747	-54
4042.224	-55
4044.699	-58
4047.172	-55
4049.643	-59
4052.112	-58
4054.58	-55
4057.046	-47
4059.51	-60
4061.972	-58
4064.432	-60
4066.891	-56
4069.348	-55
4071.803	-53
4074.256	-59
4076.708	-57
4079.158	-66
4081.606	-56
4084.052	-56
4086.497	-55
4088.939	-55
4091.38	-61
4093.819	-57
4096.257	-60
4098.693	-62
4101.127	-55
4103.559	-62
4105.989	9
4108.418	3
4110.845	2
4113.27	6
4115.694	10
4118.115	13
4120.535	-55
4122.954	-52
4125.37	-54
4127.785	-51
4130.198	-51
4132.609	-53
4135.019	-56
4137.427	-59
4139.833	-58
4142.237	-61
