Data from 2018-3-7 DARK_RamanShift_00003.txt Node
Date: Wed Mar 07 09:53:53 IST 2018
User: aro
Spectrometer: QEPB0276
Trigger mode: 0
Integration Time (sec): 3.000000E1
Scans to average: 1
Electric dark correction enabled: true
Nonlinearity correction enabled: false
Boxcar width: 0
XAxis mode: Raman Shifts
Number of Pixels in Spectrum: 1044
>>>>>Begin Spectral Data<<<<<
160.701	1.2
166.742	0.2
172.777	-1.8
178.805	3.2
184.826	2.2
190.841	-1.8
196.849	1.2
202.85	-6.8
208.845	-0.8
214.833	3.2
220.815	-3.8
226.789	-1.8
232.758	2.2
238.719	-2.8
244.674	-2.8
250.623	6.2
256.565	4.2
262.5	-2.8
268.429	1.2
274.351	5.2
280.267	-2.8
286.176	-3.8
292.079	2.2
297.975	-1.8
303.865	-0.8
309.748	-5.8
315.625	-4.8
321.495	2.2
327.359	6.2
333.217	-2.8
339.068	6.2
344.912	2.2
350.751	1.2
356.583	-0.8
362.408	4.2
368.227	0.2
374.04	2.2
379.847	1.2
385.647	-3.8
391.44	-0.8
397.228	-3.8
403.009	0.2
408.784	3.2
414.553	4.2
420.315	-2.8
426.071	-3.8
431.821	-0.8
437.565	-0.8
443.302	4.2
449.033	2.2
454.758	-4.8
460.477	1.2
466.189	-2.8
471.896	-0.8
477.596	4.2
483.29	2.2
488.978	-2.8
494.66	-2.8
500.335	3.2
506.005	1.2
511.668	3.2
517.325	9.2
522.977	2.2
528.622	1.2
534.261	4.2
539.894	-6.8
545.521	2.2
551.141	0.2
556.756	4.2
562.365	-1.8
567.968	-1.8
573.565	-0.8
579.155	-3.8
584.74	2.2
590.319	0.2
595.892	11.2
601.459	-1.8
607.02	-1.8
612.575	-1.8
618.124	1.2
623.667	0.2
629.204	-0.8
634.735	1.2
640.261	0.2
645.781	-2.8
651.294	4.2
656.802	-2.8
662.304	1.2
667.8	6.2
673.29	6.2
678.775	3.2
684.254	2.2
689.726	-3.8
695.193	-0.8
700.655	0.2
706.11	-3.8
711.56	-3.8
717.004	-5.8
722.442	-3.8
727.874	-2.8
733.301	6.2
738.722	0.2
744.137	2.2
749.547	-1.8
754.951	-6.8
760.349	-2.8
765.741	5.2
771.128	3.2
776.509	4.2
781.885	4.2
787.254	3.2
792.618	-0.8
797.977	-0.8
803.33	0.2
808.677	2.2
814.019	5.2
819.355	-0.8
824.686	-4.8
830.011	0.2
835.33	0.2
840.644	5.2
845.952	0.2
851.255	0.2
856.552	9.2
861.844	-1.8
867.13	-4.8
872.41	-4.8
877.686	4.2
882.955	8.2
888.219	2.2
893.478	5.2
898.731	-2.8
903.979	-0.8
909.221	5.2
914.458	1.2
919.69	3.2
924.916	9.2
930.136	1.2
935.351	0.2
940.561	-3.8
945.766	3.2
950.965	-1.8
956.158	5.2
961.347	1.2
966.529	4.2
971.707	-5.8
976.879	-1.8
982.046	0.2
987.208	2.2
992.364	-0.8
997.515	5.2
1002.66	-4.8
1007.801	5.2
1012.936	5.2
1018.066	7.2
1023.19	4.2
1028.309	2.2
1033.423	-4.8
1038.532	-3.8
1043.636	0.2
1048.734	1.2
1053.827	1.2
1058.915	2.2
1063.998	3.2
1069.075	-4.8
1074.147	0.2
1079.214	0.2
1084.276	4.2
1089.333	9.2
1094.385	0.2
1099.431	0.2
1104.472	-0.8
1109.509	-0.8
1114.54	-3.8
1119.565	-0.8
1124.586	3.2
1129.602	1.2
1134.613	5.2
1139.618	0.2
1144.619	-0.8
1149.614	7.2
1154.604	-0.8
1159.589	2.2
1164.57	2.2
1169.545	1.2
1174.515	-1.8
1179.48	3.2
1184.44	0.2
1189.395	-0.8
1194.345	2.2
1199.29	-0.8
1204.23	4.2
1209.165	-2.8
1214.095	0.2
1219.021	0.2
1223.941	-3.8
1228.856	-3.8
1233.766	-1.8
1238.672	-0.8
1243.572	0.2
1248.467	0.2
1253.358	0.2
1258.244	5.2
1263.124	-2.8
1268	2.2
1272.871	-2.8
1277.737	-4.8
1282.599	3.2
1287.455	3.2
1292.306	3.2
1297.153	2.2
1301.995	0.2
1306.832	1.2
1311.664	1.2
1316.491	5.2
1321.314	-0.8
1326.132	9.2
1330.945	1.2
1335.753	2.2
1340.556	-0.8
1345.354	-1.8
1350.148	3.2
1354.937	-0.8
1359.722	-2.8
1364.501	-3.8
1369.276	-0.8
1374.046	-3.8
1378.811	0.2
1383.572	3.2
1388.327	-0.8
1393.079	-2.8
1397.825	-1.8
1402.567	-0.8
1407.304	6.2
1412.036	3.2
1416.764	-1.8
1421.487	2.2
1426.205	-1.8
1430.919	-2.8
1435.628	1.2
1440.333	1.2
1445.032	-4.8
1449.727	7.2
1454.418	5.2
1459.104	1.2
1463.785	-0.8
1468.462	2.2
1473.134	-0.8
1477.802	3.2
1482.465	-5.8
1487.123	5.2
1491.777	-1.8
1496.426	5.2
1501.071	-0.8
1505.711	-1.8
1510.347	3.2
1514.978	4.2
1519.604	-1.8
1524.226	2.2
1528.844	1.2
1533.457	-1.8
1538.065	4.2
1542.669	4.2
1547.269	1.2
1551.864	1.2
1556.454	1.2
1561.041	-1.8
1565.622	-0.8
1570.199	-3.8
1574.772	-2.8
1579.34	4.2
1583.904	-5.8
1588.464	4.2
1593.019	-0.8
1597.569	1.2
1602.115	-0.8
1606.657	-0.8
1611.195	0.2
1615.728	0.2
1620.256	-2.8
1624.78	2.2
1629.3	4.2
1633.816	4.2
1638.327	7.2
1642.834	0.2
1647.336	-3.8
1651.834	-6.8
1656.328	-4.8
1660.817	2.2
1665.302	-1.8
1669.783	2.2
1674.259	-3.8
1678.732	6.2
1683.199	-1.8
1687.663	1.2
1692.122	-5.8
1696.577	2.2
1701.028	3.2
1705.474	-7.8
1709.917	1.2
1714.355	-0.8
1718.788	-1.8
1723.218	5.2
1727.643	1.2
1732.064	0.2
1736.481	10.2
1740.893	-4.8
1745.301	2.2
1749.705	5.2
1754.105	0.2
1758.501	2.2
1762.893	-1.8
1767.28	-0.8
1771.663	2.2
1776.042	4.2
1780.417	1.2
1784.787	6.2
1789.154	2.2
1793.516	0.2
1797.874	-2.8
1802.228	6.2
1806.578	0.2
1810.924	1.2
1815.266	4.2
1819.603	3.2
1823.937	4.2
1828.266	0.2
1832.591	5.2
1836.913	0.2
1841.23	0.2
1845.543	3.2
1849.852	8.2
1854.156	4.2
1858.457	3.2
1862.754	7.2
1867.047	4.2
1871.335	-1.8
1875.62	0.2
1879.9	5.2
1884.177	-6.8
1888.449	1.2
1892.718	5.2
1896.982	0.2
1901.243	-8.8
1905.499	4.2
1909.752	2.2
1914	2.2
1918.245	1.2
1922.485	3.2
1926.722	-5.8
1930.954	2.2
1935.183	3.2
1939.408	7.2
1943.628	1.2
1947.845	8.2
1952.058	-0.8
1956.267	-4.8
1960.472	2.2
1964.673	-2.8
1968.87	2.2
1973.063	2.2
1977.252	3.2
1981.438	1.2
1985.619	-6.8
1989.797	2.2
1993.971	7.2
1998.14	2.2
2002.306	6.2
2006.469	3.2
2010.627	-5.8
2014.781	-4.8
2018.932	-7.8
2023.078	2.2
2027.221	4.2
2031.36	6.2
2035.495	-0.8
2039.627	-6.8
2043.754	1.2
2047.878	-0.8
2051.998	4.2
2056.114	3.2
2060.226	-3.8
2064.334	3.2
2068.439	-8.8
2072.54	-4.8
2076.637	0.2
2080.73	0.2
2084.82	1.2
2088.906	-3.8
2092.988	-3.8
2097.066	-1.8
2101.14	1.2
2105.211	8.2
2109.278	2.2
2113.342	1.2
2117.401	-1.8
2121.457	0.2
2125.509	-3.8
2129.558	-0.8
2133.602	-2.8
2137.643	5.2
2141.681	-2.8
2145.714	-1.8
2149.744	1.2
2153.77	-0.8
2157.793	-1.8
2161.812	9.2
2165.827	7.2
2169.838	-0.8
2173.846	3.2
2177.851	0.2
2181.851	6.2
2185.848	-4.8
2189.841	1.2
2193.831	-1.8
2197.817	-0.8
2201.799	1.2
2205.778	3.2
2209.753	8.2
2213.725	-0.8
2217.693	2.2
2221.657	1.2
2225.618	-4.8
2229.575	1.2
2233.529	-4.8
2237.479	-1.8
2241.425	-4.8
2245.368	4.2
2249.307	5.2
2253.243	0.2
2257.175	1.2
2261.104	-3.8
2265.029	0.2
2268.95	-0.8
2272.868	4.2
2276.783	-1.8
2280.694	-0.8
2284.601	-2.8
2288.505	1.2
2292.405	1.2
2296.302	4.2
2300.195	0.2
2304.085	1.2
2307.971	-3.8
2311.854	-3.8
2315.734	-4.8
2319.609	-0.8
2323.482	-2.8
2327.351	1.2
2331.216	-1.8
2335.078	4.2
2338.937	1.2
2342.792	-1.8
2346.643	5.2
2350.492	8.2
2354.336	5.2
2358.178	-4.8
2362.015	-4.8
2365.85	-2.8
2369.681	3.2
2373.508	7.2
2377.333	5.2
2381.153	-4.8
2384.971	-5.8
2388.785	-4.8
2392.595	-2.8
2396.402	2.2
2400.206	-0.8
2404.007	6.2
2407.804	2.2
2411.597	2.2
2415.388	-4.8
2419.174	5.2
2422.958	-2.8
2426.738	3.2
2430.515	0.2
2434.289	4.2
2438.059	-7.8
2441.825	4.2
2445.589	-1.8
2449.349	-1.8
2453.106	3.2
2456.859	-0.8
2460.61	-1.8
2464.356	-2.8
2468.1	0.2
2471.84	0.2
2475.577	-3.8
2479.311	1.2
2483.041	2.2
2486.768	3.2
2490.492	3.2
2494.213	0.2
2497.93	0.2
2501.644	4.2
2505.355	-4.8
2509.062	3.2
2512.766	0.2
2516.467	4.2
2520.165	-5.8
2523.859	8.2
2527.551	-0.8
2531.239	-3.8
2534.923	-1.8
2538.605	-1.8
2542.283	-6.8
2545.958	3.2
2549.63	3.2
2553.299	1.2
2556.964	-0.8
2560.626	-0.8
2564.285	4.2
2567.941	-1.8
2571.594	1.2
2575.243	1.2
2578.89	0.2
2582.533	0.2
2586.173	-0.8
2589.809	2.2
2593.443	10.2
2597.073	0.2
2600.701	8.2
2604.325	-1.8
2607.946	-9.8
2611.564	-0.8
2615.178	-1.8
2618.79	5.2
2622.398	7.2
2626.004	0.2
2629.606	-3.8
2633.205	-0.8
2636.801	-1.8
2640.394	1.2
2643.983	0.2
2647.57	1.2
2651.153	0.2
2654.734	-3.8
2658.311	-2.8
2661.885	3.2
2665.456	4.2
2669.025	2.2
2672.589	-2.8
2676.151	2.2
2679.71	-8.8
2683.266	-3.8
2686.819	4.2
2690.368	-1.8
2693.915	4.2
2697.458	-4.8
2700.999	4.2
2704.536	5.2
2708.071	1.2
2711.602	1.2
2715.13	-5.8
2718.656	-0.8
2722.178	2.2
2725.697	-3.8
2729.214	-4.8
2732.727	3.2
2736.237	5.2
2739.744	3.2
2743.249	3.2
2746.75	4.2
2750.248	-1.8
2753.743	2.2
2757.236	4.2
2760.725	0.2
2764.211	2.2
2767.695	3.2
2771.175	-3.8
2774.652	-2.8
2778.127	-2.8
2781.598	-1.8
2785.067	4.2
2788.532	-0.8
2791.995	2.2
2795.455	-1.8
2798.911	-3.8
2802.365	2.2
2805.816	-1.8
2809.264	-0.8
2812.709	1.2
2816.151	3.2
2819.59	6.2
2823.026	0.2
2826.46	2.2
2829.89	1.2
2833.318	4.2
2836.742	6.2
2840.164	-2.8
2843.583	-1.8
2846.999	2.2
2850.412	-2.8
2853.822	-5.8
2857.229	10.2
2860.634	-0.8
2864.035	-0.8
2867.434	-2.8
2870.83	0.2
2874.223	-3.8
2877.613	3.2
2881	2.2
2884.385	1.2
2887.766	1.2
2891.145	-4.8
2894.521	-1.8
2897.894	1.2
2901.264	2.2
2904.631	-8.8
2907.996	3.2
2911.358	5.2
2914.717	-0.8
2918.073	-4.8
2921.426	-1.8
2924.777	3.2
2928.124	-0.8
2931.469	1.2
2934.811	0.2
2938.15	3.2
2941.487	3.2
2944.821	-1.8
2948.152	1.2
2951.48	3.2
2954.805	6.2
2958.128	-1.8
2961.447	4.2
2964.765	-0.8
2968.079	0.2
2971.39	1.2
2974.699	-3.8
2978.005	6.2
2981.308	-1.8
2984.609	-0.8
2987.907	-0.8
2991.202	1.2
2994.494	-0.8
2997.784	1.2
3001.07	1.2
3004.355	-6.8
3007.636	2.2
3010.915	2.2
3014.191	4.2
3017.464	2.2
3020.734	5.2
3024.002	6.2
3027.267	0.2
3030.53	0.2
3033.789	1.2
3037.046	2.2
3040.301	-0.8
3043.552	2.2
3046.801	0.2
3050.048	-6.8
3053.291	1.2
3056.532	-1.8
3059.771	0.2
3063.006	2.2
3066.239	2.2
3069.469	-1.8
3072.697	-0.8
3075.922	-1.8
3079.144	-1.8
3082.364	1.2
3085.581	-4.8
3088.795	3.2
3092.007	-4.8
3095.216	-0.8
3098.423	-0.8
3101.627	-0.8
3104.828	6.2
3108.026	3.2
3111.222	-2.8
3114.416	-2.8
3117.607	-2.8
3120.795	3.2
3123.98	2.2
3127.163	7.2
3130.344	2.2
3133.521	-1.8
3136.696	-2.8
3139.869	2.2
3143.039	-1.8
3146.206	3.2
3149.371	1.2
3152.533	10.2
3155.693	4.2
3158.85	5.2
3162.005	0.2
3165.157	4.2
3168.306	1.2
3171.453	-2.8
3174.597	-1.8
3177.739	5.2
3180.878	0.2
3184.014	-6.8
3187.149	-3.8
3190.28	-0.8
3193.409	1.2
3196.536	-0.8
3199.659	1.2
3202.781	1.2
3205.9	-4.8
3209.016	0.2
3212.13	2.2
3215.241	1.2
3218.35	-3.8
3221.456	5.2
3224.56	-5.8
3227.661	2.2
3230.76	1.2
3233.856	6.2
3236.95	-4.8
3240.041	-1.8
3243.13	6.2
3246.216	-1.8
3249.3	1.2
3252.382	9.2
3255.46	8.2
3258.537	-1.8
3261.611	1.2
3264.682	-2.8
3267.751	4.2
3270.818	-5.8
3273.882	2.2
3276.943	0.2
3280.002	-2.8
3283.059	-1.8
3286.113	-3.8
3289.165	-3.8
3292.214	4.2
3295.261	3.2
3298.306	1.2
3301.348	-0.8
3304.387	-5.8
3307.425	-4.8
3310.459	-2.8
3313.492	0.2
3316.521	-3.8
3319.549	9.2
3322.574	0.2
3325.597	0.2
3328.617	1.2
3331.635	3.2
3334.65	5.2
3337.663	1.2
3340.674	-2.8
3343.682	-2.8
3346.688	-2.8
3349.691	4.2
3352.692	0.2
3355.691	7.2
3358.687	2.2
3361.681	5.2
3364.673	2.2
3367.662	3.2
3370.649	4.2
3373.633	1.2
3376.615	4.2
3379.595	-2.8
3382.572	-3.8
3385.547	2.2
3388.52	0.2
3391.49	2.2
3394.458	0.2
3397.424	4.2
3400.387	2.2
3403.348	-0.8
3406.307	-3.8
3409.263	0.2
3412.217	4.2
3415.168	3.2
3418.118	3.2
3421.065	-1.8
3424.009	-1.8
3426.951	-3.8
3429.891	-0.8
3432.829	-0.8
3435.764	8.2
3438.697	3.2
3441.628	-3.8
3444.557	-1.8
3447.483	4.2
3450.407	-7.8
3453.328	4.2
3456.247	6.2
3459.164	5.2
3462.079	1.2
3464.991	2.2
3467.902	-2.8
3470.809	-1.8
3473.715	0.2
3476.618	0.2
3479.519	0.2
3482.418	-1.8
3485.315	3.2
3488.209	-6.8
3491.101	-3.8
3493.99	3.2
3496.878	0.2
3499.763	0.2
3502.646	-4.8
3505.527	3.2
3508.405	-0.8
3511.281	-3.8
3514.155	5.2
3517.027	-0.8
3519.897	4.2
3522.764	0.2
3525.629	-2.8
3528.492	-3.8
3531.352	-4.8
3534.211	-7.8
3537.067	3.2
3539.921	2.2
3542.773	-2.8
3545.622	3.2
3548.469	3.2
3551.315	4.2
3554.157	1.2
3556.998	4.2
3559.837	-0.8
3562.673	-1.8
3565.507	0.2
3568.339	-0.8
3571.169	-1.8
3573.996	5.2
3576.822	-2.8
3579.645	-3.8
3582.466	4.2
3585.285	1.2
3588.101	0.2
3590.916	4.2
3593.728	2.2
3596.538	-3.8
3599.346	-1.8
3602.152	0.2
3604.956	-3.8
3607.757	5.2
3610.556	4.2
3613.354	-3.8
3616.149	1.2
3618.942	-1.8
3621.732	-2.8
3624.521	-0.8
3627.307	3.2
3630.092	4.2
3632.874	-0.8
3635.654	2.2
3638.432	0.2
3641.208	-0.8
3643.982	4.2
3646.753	-1.8
3649.523	4.2
3652.29	0.2
3655.055	3.2
3657.818	-4.8
3660.579	1.2
3663.338	1.2
3666.095	1.2
3668.849	2.2
3671.602	-0.8
3674.352	5.2
3677.101	0.2
3679.847	1.2
3682.591	-2.8
3685.333	4.2
3688.073	-0.8
3690.811	6.2
3693.547	-1.8
3696.281	3.2
3699.013	1.2
3701.742	1.2
3704.47	3.2
3707.195	2.2
3709.919	3.2
3712.64	3.2
3715.359	-2.8
3718.076	-2.8
3720.792	-3.8
3723.505	0.2
3726.216	3.2
3728.925	4.2
3731.632	5.2
3734.336	-1.8
3737.039	0.2
3739.74	-1.8
3742.439	-3.8
3745.136	-2.8
3747.83	2.2
3750.523	-0.8
3753.213	-7.8
3755.902	-0.8
3758.589	1.2
3761.273	-2.8
3763.956	-0.8
3766.636	2.2
3769.315	1.2
3771.991	-0.8
3774.665	0.2
3777.338	4.2
3780.008	3.2
3782.677	-7.8
3785.343	-3.8
3788.007	-2.8
3790.67	-1.8
3793.33	5.2
3795.989	-0.8
3798.645	-4.8
3801.299	1.2
3803.952	3.2
3806.602	0.2
3809.251	2.2
3811.897	-2.8
3814.542	-3.8
3817.184	0.2
3819.825	0.2
3822.463	-1.8
3825.1	6.2
3827.735	-3.8
3830.367	-6.8
3832.998	-3.8
3835.627	-1.8
3838.253	4.2
3840.878	4.2
3843.501	3.2
3846.122	-4.8
3848.741	-0.8
3851.358	-2.8
3853.973	1.2
3856.586	0.2
3859.197	1.2
3861.806	-0.8
3864.414	-0.8
3867.019	-2.8
3869.622	-3.8
3872.224	0.2
3874.823	3.2
3877.421	-2.8
3880.016	0.2
3882.61	5.2
3885.202	-3.8
3887.792	3.2
3890.38	2.2
3892.966	-3.8
3895.55	1.2
3898.132	-0.8
3900.713	-1.8
3903.291	-1.8
3905.868	-2.8
3908.442	-0.8
3911.015	-0.8
3913.586	-1.8
3916.155	0.2
3918.722	-1.8
3921.287	-3.8
3923.85	6.2
3926.411	3.2
3928.971	1.2
3931.528	3.2
3934.084	2.2
3936.638	5.2
3939.19	-3.8
3941.74	2.2
3944.288	-3.8
3946.834	1.2
3949.378	4.2
3951.921	0.2
3954.462	0.2
3957	5.2
3959.537	3.2
3962.072	0.2
3964.606	3.2
3967.137	2.2
3969.667	0.2
3972.194	4.2
3974.72	-0.8
3977.244	0.2
3979.766	1.2
3982.286	2.2
3984.805	-5.8
3987.321	3.2
3989.836	3.2
3992.349	-0.8
3994.86	-6.8
3997.369	-3.8
3999.877	-2.8
4002.382	2.2
4004.886	0.2
4007.388	-2.8
4009.888	-0.8
4012.386	1.2
4014.883	4.2
4017.377	4.2
4019.87	2.2
4022.361	-3.8
4024.85	0.2
4027.338	-0.8
4029.823	-1.8
4032.307	0.2
4034.789	4.2
4037.269	2.2
4039.747	-4.8
4042.224	-2.8
4044.699	-6.8
4047.172	-4.8
4049.643	-0.8
4052.112	4.2
4054.58	-0.8
4057.046	7.2
4059.51	-1.8
4061.972	-2.8
4064.432	1.2
4066.891	1.2
4069.348	2.2
4071.803	4.2
4074.256	-0.8
4076.708	1.2
4079.158	-1.8
4081.606	-0.8
4084.052	5.2
4086.497	4.2
4088.939	3.2
4091.38	-2.8
4093.819	-5.8
4096.257	3.2
4098.693	-2.8
4101.127	5.2
4103.559	-1.8
4105.989	0.2
4108.418	-2.8
4110.845	-6.8
4113.27	-7.8
4115.694	1.2
4118.115	-2.8
4120.535	-0.8
4122.954	0.2
4125.37	-0.8
4127.785	7.2
4130.198	3.2
4132.609	-3.8
4135.019	-1.8
4137.427	-3.8
4139.833	3.2
4142.237	-0.8
