Data from 2018-3-7_conc=2_n=2_RamanShift_03.txt Node
Date: Wed Mar 07 10:43:22 IST 2018
User: aro
Spectrometer: QEPB0276
Trigger mode: 0
Integration Time (sec): 3.000000E1
Scans to average: 1
Electric dark correction enabled: true
Nonlinearity correction enabled: false
Boxcar width: 0
XAxis mode: Raman Shifts
Number of Pixels in Spectrum: 1044
>>>>>Begin Spectral Data<<<<<
160.701	11
166.742	21
172.777	55
178.805	166
184.826	428
190.841	887
196.849	1474
202.85	1936
208.845	2090
214.833	2117
220.815	2082
226.789	2098
232.758	2122
238.719	2118
244.674	2091
250.623	2087
256.565	2073
262.5	2059
268.429	2039
274.351	2030
280.267	2008
286.176	2026
292.079	2020
297.975	2017
303.865	2007
309.748	2031
315.625	2035
321.495	2013
327.359	2040
333.217	2035
339.068	2052
344.912	2037
350.751	2051
356.583	2030
362.408	2065
368.227	2068
374.04	2082
379.847	2097
385.647	2096
391.44	2104
397.228	2130
403.009	2126
408.784	2138
414.553	2165
420.315	2143
426.071	2138
431.821	2141
437.565	2153
443.302	2130
449.033	2137
454.758	2128
460.477	2109
466.189	2097
471.896	2071
477.596	2075
483.29	2059
488.978	2060
494.66	2043
500.335	1999
506.005	1920
511.668	1853
517.325	1764
522.977	1689
528.622	1675
534.261	1627
539.894	1574
545.521	1570
551.141	1552
556.756	1551
562.365	1525
567.968	1521
573.565	1486
579.155	1491
584.74	1500
590.319	1493
595.892	1486
601.459	1486
607.02	1483
612.575	1468
618.124	1448
623.667	1429
629.204	1388
634.735	1399
640.261	1375
645.781	1366
651.294	1381
656.802	1361
662.304	1363
667.8	1350
673.29	1368
678.775	1344
684.254	1350
689.726	1330
695.193	1338
700.655	1330
706.11	1306
711.56	1294
717.004	1290
722.442	1285
727.874	1281
733.301	1291
738.722	1269
744.137	1272
749.547	1255
754.951	1258
760.349	1269
765.741	1269
771.128	1280
776.509	1279
781.885	1296
787.254	1338
792.618	1315
797.977	1306
803.33	1302
808.677	1295
814.019	1295
819.355	1275
824.686	1251
830.011	1258
835.33	1247
840.644	1241
845.952	1239
851.255	1234
856.552	1241
861.844	1217
867.13	1197
872.41	1194
877.686	1209
882.955	1176
888.219	1188
893.478	1166
898.731	1146
903.979	1125
909.221	1122
914.458	1105
919.69	1103
924.916	1106
930.136	1101
935.351	1087
940.561	1109
945.766	1104
950.965	1103
956.158	1101
961.347	1082
966.529	1063
971.707	1047
976.879	1037
982.046	1022
987.208	1014
992.364	1019
997.515	1024
1002.66	1028
1007.801	1047
1012.936	1061
1018.066	1063
1023.19	1065
1028.309	1067
1033.423	1065
1038.532	1061
1043.636	1042
1048.734	1049
1053.827	1031
1058.915	1021
1063.998	1014
1069.075	1003
1074.147	1013
1079.214	1002
1084.276	1017
1089.333	1021
1094.385	1014
1099.431	1016
1104.472	1004
1109.509	1003
1114.54	979
1119.565	966
1124.586	950
1129.602	958
1134.613	943
1139.618	926
1144.619	940
1149.614	927
1154.604	922
1159.589	948
1164.57	948
1169.545	941
1174.515	944
1179.48	934
1184.44	921
1189.395	918
1194.345	925
1199.29	904
1204.23	911
1209.165	913
1214.095	908
1219.021	925
1223.941	934
1228.856	926
1233.766	929
1238.672	932
1243.572	916
1248.467	931
1253.358	912
1258.244	892
1263.124	882
1268	866
1272.871	857
1277.737	843
1282.599	842
1287.455	846
1292.306	831
1297.153	838
1301.995	845
1306.832	861
1311.664	854
1316.491	861
1321.314	863
1326.132	844
1330.945	832
1335.753	822
1340.556	796
1345.354	781
1350.148	761
1354.937	746
1359.722	728
1364.501	711
1369.276	709
1374.046	698
1378.811	697
1383.572	693
1388.327	680
1393.079	700
1397.825	705
1402.567	688
1407.304	697
1412.036	705
1416.764	703
1421.487	705
1426.205	704
1430.919	715
1435.628	713
1440.333	731
1445.032	718
1449.727	727
1454.418	728
1459.104	723
1463.785	709
1468.462	702
1473.134	682
1477.802	661
1482.465	644
1487.123	633
1491.777	630
1496.426	604
1501.071	601
1505.711	592
1510.347	589
1514.978	583
1519.604	579
1524.226	580
1528.844	579
1533.457	581
1538.065	585
1542.669	581
1547.269	566
1551.864	586
1556.454	599
1561.041	595
1565.622	616
1570.199	605
1574.772	615
1579.34	623
1583.904	625
1588.464	628
1593.019	640
1597.569	638
1602.115	626
1606.657	633
1611.195	624
1615.728	619
1620.256	609
1624.78	612
1629.3	619
1633.816	617
1638.327	627
1642.834	615
1647.336	624
1651.834	614
1656.328	621
1660.817	605
1665.302	599
1669.783	582
1674.259	574
1678.732	563
1683.199	543
1687.663	516
1692.122	497
1696.577	467
1701.028	454
1705.474	425
1709.917	420
1714.355	416
1718.788	404
1723.218	423
1727.643	414
1732.064	424
1736.481	408
1740.893	406
1745.301	398
1749.705	382
1754.105	363
1758.501	354
1762.893	363
1767.28	347
1771.663	344
1776.042	340
1780.417	338
1784.787	332
1789.154	316
1793.516	308
1797.874	308
1802.228	302
1806.578	296
1810.924	300
1815.266	304
1819.603	308
1823.937	311
1828.266	301
1832.591	316
1836.913	314
1841.23	312
1845.543	301
1849.852	311
1854.156	324
1858.457	310
1862.754	313
1867.047	320
1871.335	324
1875.62	303
1879.9	317
1884.177	300
1888.449	289
1892.718	296
1896.982	288
1901.243	275
1905.499	268
1909.752	272
1914	259
1918.245	253
1922.485	266
1926.722	250
1930.954	247
1935.183	246
1939.408	256
1943.628	240
1947.845	238
1952.058	233
1956.267	231
1960.472	238
1964.673	236
1968.87	232
1973.063	231
1977.252	239
1981.438	232
1985.619	224
1989.797	236
1993.971	232
1998.14	232
2002.306	230
2006.469	242
2010.627	243
2014.781	236
2018.932	238
2023.078	237
2027.221	235
2031.36	227
2035.495	225
2039.627	215
2043.754	222
2047.878	220
2051.998	215
2056.114	216
2060.226	211
2064.334	217
2068.439	200
2072.54	206
2076.637	199
2080.73	205
2084.82	203
2088.906	197
2092.988	194
2097.066	192
2101.14	199
2105.211	194
2109.278	190
2113.342	179
2117.401	183
2121.457	181
2125.509	183
2129.558	175
2133.602	182
2137.643	181
2141.681	177
2145.714	185
2149.744	187
2153.77	187
2157.793	186
2161.812	190
2165.827	182
2169.838	182
2173.846	177
2177.851	173
2181.851	165
2185.848	173
2189.841	170
2193.831	173
2197.817	168
2201.799	168
2205.778	173
2209.753	157
2213.725	165
2217.693	165
2221.657	165
2225.618	166
2229.575	159
2233.529	155
2237.479	163
2241.425	153
2245.368	167
2249.307	161
2253.243	150
2257.175	146
2261.104	142
2265.029	140
2268.95	150
2272.868	144
2276.783	142
2280.694	132
2284.601	139
2288.505	135
2292.405	141
2296.302	135
2300.195	130
2304.085	129
2307.971	131
2311.854	123
2315.734	127
2319.609	128
2323.482	128
2327.351	138
2331.216	142
2335.078	149
2338.937	143
2342.792	123
2346.643	125
2350.492	126
2354.336	129
2358.178	121
2362.015	133
2365.85	127
2369.681	132
2373.508	132
2377.333	134
2381.153	122
2384.971	124
2388.785	128
2392.595	123
2396.402	123
2400.206	122
2404.007	120
2407.804	118
2411.597	120
2415.388	126
2419.174	126
2422.958	124
2426.738	119
2430.515	123
2434.289	112
2438.059	109
2441.825	116
2445.589	109
2449.349	112
2453.106	111
2456.859	108
2460.61	111
2464.356	110
2468.1	102
2471.84	96
2475.577	99
2479.311	106
2483.041	99
2486.768	92
2490.492	96
2494.213	102
2497.93	96
2501.644	93
2505.355	86
2509.062	91
2512.766	90
2516.467	87
2520.165	85
2523.859	93
2527.551	79
2531.239	79
2534.923	76
2538.605	73
2542.283	77
2545.958	80
2549.63	75
2553.299	76
2556.964	71
2560.626	73
2564.285	69
2567.941	67
2571.594	64
2575.243	67
2578.89	67
2582.533	68
2586.173	76
2589.809	73
2593.443	74
2597.073	68
2600.701	66
2604.325	53
2607.946	52
2611.564	62
2615.178	61
2618.79	66
2622.398	58
2626.004	60
2629.606	56
2633.205	62
2636.801	56
2640.394	65
2643.983	55
2647.57	52
2651.153	56
2654.734	54
2658.311	48
2661.885	55
2665.456	55
2669.025	57
2672.589	52
2676.151	53
2679.71	52
2683.266	46
2686.819	54
2690.368	45
2693.915	44
2697.458	42
2700.999	50
2704.536	44
2708.071	46
2711.602	42
2715.13	39
2718.656	40
2722.178	35
2725.697	32
2729.214	37
2732.727	41
2736.237	40
2739.744	29
2743.249	27
2746.75	33
2750.248	30
2753.743	34
2757.236	23
2760.725	29
2764.211	27
2767.695	22
2771.175	16
2774.652	22
2778.127	26
2781.598	15
2785.067	19
2788.532	21
2791.995	21
2795.455	24
2798.911	23
2802.365	21
2805.816	24
2809.264	24
2812.709	17
2816.151	22
2819.59	29
2823.026	24
2826.46	33
2829.89	24
2833.318	28
2836.742	31
2840.164	26
2843.583	26
2846.999	30
2850.412	24
2853.822	26
2857.229	23
2860.634	26
2864.035	21
2867.434	31
2870.83	36
2874.223	38
2877.613	42
2881	38
2884.385	43
2887.766	44
2891.145	41
2894.521	42
2897.894	44
2901.264	43
2904.631	39
2907.996	48
2911.358	53
2914.717	44
2918.073	49
2921.426	42
2924.777	44
2928.124	53
2931.469	54
2934.811	63
2938.15	63
2941.487	61
2944.821	57
2948.152	67
2951.48	59
2954.805	65
2958.128	55
2961.447	59
2964.765	51
2968.079	49
2971.39	55
2974.699	45
2978.005	49
2981.308	47
2984.609	52
2987.907	51
2991.202	46
2994.494	51
2997.784	45
3001.07	53
3004.355	49
3007.636	53
3010.915	58
3014.191	51
3017.464	54
3020.734	57
3024.002	56
3027.267	67
3030.53	56
3033.789	60
3037.046	64
3040.301	56
3043.552	67
3046.801	73
3050.048	63
3053.291	71
3056.532	76
3059.771	76
3063.006	82
3066.239	95
3069.469	93
3072.697	89
3075.922	105
3079.144	96
3082.364	97
3085.581	105
3088.795	110
3092.007	105
3095.216	118
3098.423	111
3101.627	113
3104.828	129
3108.026	124
3111.222	127
3114.416	129
3117.607	134
3120.795	133
3123.98	138
3127.163	144
3130.344	144
3133.521	139
3136.696	145
3139.869	157
3143.039	160
3146.206	162
3149.371	159
3152.533	169
3155.693	167
3158.85	162
3162.005	167
3165.157	168
3168.306	163
3171.453	170
3174.597	167
3177.739	166
3180.878	170
3184.014	169
3187.149	161
3190.28	170
3193.409	168
3196.536	175
3199.659	172
3202.781	168
3205.9	173
3209.016	166
3212.13	168
3215.241	164
3218.35	167
3221.456	164
3224.56	159
3227.661	163
3230.76	151
3233.856	153
3236.95	144
3240.041	147
3243.13	147
3246.216	139
3249.3	135
3252.382	139
3255.46	146
3258.537	128
3261.611	128
3264.682	132
3267.751	132
3270.818	116
3273.882	133
3276.943	123
3280.002	130
3283.059	123
3286.113	119
3289.165	121
3292.214	121
3295.261	124
3298.306	119
3301.348	117
3304.387	119
3307.425	119
3310.459	111
3313.492	114
3316.521	113
3319.549	117
3322.574	110
3325.597	109
3328.617	106
3331.635	116
3334.65	113
3337.663	105
3340.674	109
3343.682	110
3346.688	107
3349.691	117
3352.692	113
3355.691	114
3358.687	111
3361.681	111
3364.673	110
3367.662	108
3370.649	106
3373.633	102
3376.615	97
3379.595	101
3382.572	95
3385.547	94
3388.52	90
3391.49	83
3394.458	84
3397.424	86
3400.387	93
3403.348	73
3406.307	79
3409.263	78
3412.217	80
3415.168	78
3418.118	73
3421.065	68
3424.009	72
3426.951	75
3429.891	71
3432.829	63
3435.764	66
3438.697	64
3441.628	50
3444.557	59
3447.483	53
3450.407	42
3453.328	52
3456.247	46
3459.164	47
3462.079	39
3464.991	36
3467.902	36
3470.809	29
3473.715	28
3476.618	20
3479.519	16
3482.418	21
3485.315	14
3488.209	9
3491.101	7
3493.99	17
3496.878	12
3499.763	6
3502.646	-1
3505.527	-1
3508.405	-1
3511.281	-3
3514.155	-3
3517.027	-1
3519.897	-6
3522.764	-6
3525.629	-6
3528.492	-9
3531.352	-16
3534.211	-17
3537.067	-23
3539.921	-17
3542.773	-22
3545.622	-20
3548.469	-19
3551.315	-19
3554.157	-21
3556.998	-27
3559.837	-27
3562.673	-25
3565.507	-23
3568.339	-28
3571.169	-37
3573.996	-28
3576.822	-36
3579.645	-32
3582.466	-26
3585.285	-32
3588.101	-34
3590.916	-28
3593.728	-41
3596.538	-35
3599.346	-40
3602.152	-40
3604.956	-37
3607.757	-36
3610.556	-37
3613.354	-38
3616.149	-44
3618.942	-35
3621.732	-40
3624.521	-38
3627.307	-42
3630.092	-42
3632.874	-49
3635.654	-48
3638.432	-46
3641.208	-44
3643.982	-41
3646.753	-46
3649.523	-37
3652.29	-48
3655.055	-44
3657.818	-47
3660.579	-49
3663.338	-45
3666.095	-53
3668.849	-51
3671.602	-48
3674.352	-47
3677.101	-48
3679.847	-48
3682.591	-52
3685.333	-50
3688.073	-57
3690.811	-50
3693.547	-51
3696.281	-50
3699.013	-48
3701.742	-54
3704.47	-51
3707.195	-49
3709.919	-56
3712.64	-48
3715.359	-54
3718.076	-55
3720.792	-56
3723.505	-54
3726.216	-49
3728.925	-54
3731.632	-51
3734.336	-57
3737.039	-54
3739.74	-60
3742.439	-67
3745.136	-54
3747.83	-55
3750.523	-58
3753.213	-56
3755.902	-55
3758.589	-57
3761.273	-54
3763.956	-62
3766.636	-51
3769.315	-54
3771.991	-56
3774.665	-62
3777.338	-52
3780.008	-58
3782.677	-58
3785.343	-59
3788.007	-60
3790.67	-57
3793.33	-60
3795.989	-64
3798.645	-58
3801.299	-58
3803.952	-62
3806.602	-58
3809.251	-61
3811.897	-60
3814.542	-60
3817.184	-56
3819.825	-53
3822.463	-56
3825.1	-53
3827.735	-63
3830.367	-59
3832.998	-62
3835.627	-58
3838.253	-56
3840.878	-50
3843.501	-47
3846.122	-57
3848.741	-57
3851.358	-62
3853.973	-62
3856.586	-56
3859.197	-60
3861.806	-59
3864.414	-57
3867.019	-55
3869.622	-47
3872.224	-48
3874.823	-39
3877.421	-34
3880.016	-23
3882.61	-11
3885.202	-15
3887.792	-14
3890.38	-27
3892.966	-43
3895.55	-55
3898.132	-50
3900.713	-55
3903.291	-63
3905.868	-54
3908.442	-57
3911.015	-60
3913.586	-65
3916.155	-60
3918.722	-62
3921.287	-61
3923.85	-53
3926.411	-64
3928.971	-67
3931.528	-58
3934.084	-57
3936.638	-55
3939.19	-65
3941.74	-56
3944.288	-64
3946.834	-60
3949.378	-59
3951.921	-67
3954.462	-64
3957	-54
3959.537	-52
3962.072	-54
3964.606	-58
3967.137	-54
3969.667	-59
3972.194	-54
3974.72	-59
3977.244	-64
3979.766	-62
3982.286	-61
3984.805	-67
3987.321	-60
3989.836	-57
3992.349	-56
3994.86	-58
3997.369	-61
3999.877	-60
4002.382	-59
4004.886	-61
4007.388	-58
4009.888	-55
4012.386	-57
4014.883	-55
4017.377	-57
4019.87	-58
4022.361	-61
4024.85	-55
4027.338	-61
4029.823	-61
4032.307	-64
4034.789	-61
4037.269	-56
4039.747	-57
4042.224	-61
4044.699	-58
4047.172	-59
4049.643	-60
4052.112	-58
4054.58	-59
4057.046	-60
4059.51	-62
4061.972	-63
4064.432	-62
4066.891	-59
4069.348	-53
4071.803	-52
4074.256	-53
4076.708	-59
4079.158	-61
4081.606	-58
4084.052	-60
4086.497	-54
4088.939	-59
4091.38	-69
4093.819	-62
4096.257	-62
4098.693	-61
4101.127	-55
4103.559	-62
4105.989	16
4108.418	10
4110.845	10
4113.27	10
4115.694	7
4118.115	12
4120.535	-59
4122.954	-54
4125.37	-55
4127.785	-54
4130.198	-57
4132.609	-64
4135.019	-62
4137.427	-63
4139.833	-63
4142.237	-65
