Data from 2018-3-7_conc=3_n=4_RamanShift_02.txt Node
Date: Wed Mar 07 11:25:22 IST 2018
User: aro
Spectrometer: QEPB0276
Trigger mode: 0
Integration Time (sec): 3.000000E1
Scans to average: 1
Electric dark correction enabled: true
Nonlinearity correction enabled: false
Boxcar width: 0
XAxis mode: Raman Shifts
Number of Pixels in Spectrum: 1044
>>>>>Begin Spectral Data<<<<<
160.701	15
166.742	24
172.777	47
178.805	147
184.826	351
190.841	735
196.849	1194
202.85	1555
208.845	1718
214.833	1710
220.815	1687
226.789	1694
232.758	1697
238.719	1699
244.674	1689
250.623	1681
256.565	1663
262.5	1648
268.429	1626
274.351	1630
280.267	1630
286.176	1616
292.079	1613
297.975	1614
303.865	1616
309.748	1612
315.625	1611
321.495	1607
327.359	1630
333.217	1626
339.068	1636
344.912	1638
350.751	1642
356.583	1628
362.408	1655
368.227	1650
374.04	1650
379.847	1681
385.647	1659
391.44	1689
397.228	1691
403.009	1698
408.784	1713
414.553	1723
420.315	1726
426.071	1717
431.821	1710
437.565	1722
443.302	1719
449.033	1720
454.758	1721
460.477	1679
466.189	1671
471.896	1657
477.596	1659
483.29	1637
488.978	1645
494.66	1639
500.335	1591
506.005	1548
511.668	1482
517.325	1432
522.977	1357
528.622	1326
534.261	1308
539.894	1291
545.521	1277
551.141	1259
556.756	1256
562.365	1231
567.968	1241
573.565	1228
579.155	1202
584.74	1214
590.319	1196
595.892	1207
601.459	1198
607.02	1192
612.575	1188
618.124	1165
623.667	1137
629.204	1142
634.735	1131
640.261	1124
645.781	1117
651.294	1119
656.802	1113
662.304	1111
667.8	1113
673.29	1102
678.775	1093
684.254	1087
689.726	1083
695.193	1078
700.655	1068
706.11	1076
711.56	1051
717.004	1052
722.442	1038
727.874	1040
733.301	1037
738.722	1036
744.137	1040
749.547	1023
754.951	1031
760.349	1031
765.741	1032
771.128	1041
776.509	1051
781.885	1064
787.254	1062
792.618	1055
797.977	1063
803.33	1046
808.677	1054
814.019	1048
819.355	1027
824.686	1015
830.011	1019
835.33	1018
840.644	1010
845.952	1012
851.255	994
856.552	990
861.844	980
867.13	975
872.41	977
877.686	978
882.955	956
888.219	949
893.478	940
898.731	920
903.979	919
909.221	904
914.458	884
919.69	899
924.916	905
930.136	899
935.351	900
940.561	909
945.766	909
950.965	889
956.158	878
961.347	881
966.529	875
971.707	858
976.879	843
982.046	839
987.208	842
992.364	829
997.515	841
1002.66	839
1007.801	841
1012.936	867
1018.066	859
1023.19	860
1028.309	852
1033.423	863
1038.532	850
1043.636	842
1048.734	825
1053.827	831
1058.915	833
1063.998	816
1069.075	810
1074.147	808
1079.214	818
1084.276	822
1089.333	812
1094.385	833
1099.431	815
1104.472	808
1109.509	805
1114.54	794
1119.565	790
1124.586	774
1129.602	765
1134.613	764
1139.618	755
1144.619	747
1149.614	760
1154.604	744
1159.589	756
1164.57	768
1169.545	755
1174.515	760
1179.48	755
1184.44	761
1189.395	757
1194.345	746
1199.29	728
1204.23	747
1209.165	736
1214.095	744
1219.021	733
1223.941	751
1228.856	748
1233.766	749
1238.672	753
1243.572	743
1248.467	740
1253.358	734
1258.244	731
1263.124	713
1268	693
1272.871	679
1277.737	688
1282.599	685
1287.455	689
1292.306	668
1297.153	689
1301.995	689
1306.832	692
1311.664	697
1316.491	708
1321.314	687
1326.132	684
1330.945	673
1335.753	666
1340.556	646
1345.354	632
1350.148	620
1354.937	616
1359.722	599
1364.501	596
1369.276	588
1374.046	578
1378.811	568
1383.572	573
1388.327	570
1393.079	563
1397.825	568
1402.567	575
1407.304	576
1412.036	571
1416.764	561
1421.487	566
1426.205	575
1430.919	558
1435.628	575
1440.333	576
1445.032	585
1449.727	592
1454.418	590
1459.104	594
1463.785	586
1468.462	564
1473.134	551
1477.802	534
1482.465	521
1487.123	516
1491.777	495
1496.426	494
1501.071	496
1505.711	488
1510.347	492
1514.978	478
1519.604	472
1524.226	478
1528.844	481
1533.457	480
1538.065	470
1542.669	469
1547.269	465
1551.864	472
1556.454	492
1561.041	488
1565.622	505
1570.199	496
1574.772	497
1579.34	514
1583.904	509
1588.464	517
1593.019	510
1597.569	516
1602.115	524
1606.657	516
1611.195	521
1615.728	517
1620.256	513
1624.78	519
1629.3	513
1633.816	510
1638.327	518
1642.834	507
1647.336	505
1651.834	500
1656.328	514
1660.817	503
1665.302	495
1669.783	484
1674.259	476
1678.732	456
1683.199	441
1687.663	431
1692.122	417
1696.577	390
1701.028	376
1705.474	359
1709.917	352
1714.355	344
1718.788	342
1723.218	345
1727.643	352
1732.064	351
1736.481	341
1740.893	342
1745.301	326
1749.705	326
1754.105	314
1758.501	301
1762.893	305
1767.28	296
1771.663	286
1776.042	287
1780.417	278
1784.787	282
1789.154	269
1793.516	273
1797.874	259
1802.228	262
1806.578	263
1810.924	254
1815.266	253
1819.603	252
1823.937	260
1828.266	253
1832.591	257
1836.913	259
1841.23	252
1845.543	254
1849.852	254
1854.156	258
1858.457	258
1862.754	263
1867.047	255
1871.335	260
1875.62	258
1879.9	262
1884.177	255
1888.449	250
1892.718	260
1896.982	250
1901.243	230
1905.499	230
1909.752	231
1914	222
1918.245	220
1922.485	214
1926.722	211
1930.954	213
1935.183	210
1939.408	211
1943.628	209
1947.845	218
1952.058	210
1956.267	198
1960.472	209
1964.673	196
1968.87	190
1973.063	197
1977.252	195
1981.438	204
1985.619	188
1989.797	190
1993.971	202
1998.14	206
2002.306	197
2006.469	207
2010.627	202
2014.781	200
2018.932	196
2023.078	200
2027.221	195
2031.36	195
2035.495	190
2039.627	169
2043.754	183
2047.878	181
2051.998	182
2056.114	188
2060.226	176
2064.334	181
2068.439	165
2072.54	178
2076.637	185
2080.73	174
2084.82	170
2088.906	170
2092.988	172
2097.066	171
2101.14	165
2105.211	158
2109.278	165
2113.342	148
2117.401	153
2121.457	152
2125.509	154
2129.558	152
2133.602	155
2137.643	152
2141.681	154
2145.714	152
2149.744	153
2153.77	150
2157.793	148
2161.812	154
2165.827	156
2169.838	146
2173.846	142
2177.851	147
2181.851	142
2185.848	146
2189.841	136
2193.831	141
2197.817	140
2201.799	136
2205.778	140
2209.753	138
2213.725	134
2217.693	134
2221.657	143
2225.618	125
2229.575	126
2233.529	124
2237.479	134
2241.425	125
2245.368	129
2249.307	133
2253.243	120
2257.175	128
2261.104	117
2265.029	127
2268.95	123
2272.868	114
2276.783	110
2280.694	110
2284.601	105
2288.505	111
2292.405	114
2296.302	111
2300.195	107
2304.085	108
2307.971	102
2311.854	104
2315.734	99
2319.609	110
2323.482	96
2327.351	107
2331.216	109
2335.078	128
2338.937	108
2342.792	101
2346.643	103
2350.492	106
2354.336	108
2358.178	91
2362.015	96
2365.85	92
2369.681	103
2373.508	100
2377.333	106
2381.153	94
2384.971	97
2388.785	93
2392.595	89
2396.402	96
2400.206	98
2404.007	92
2407.804	94
2411.597	91
2415.388	94
2419.174	105
2422.958	94
2426.738	89
2430.515	88
2434.289	100
2438.059	86
2441.825	81
2445.589	89
2449.349	80
2453.106	87
2456.859	79
2460.61	80
2464.356	85
2468.1	84
2471.84	78
2475.577	72
2479.311	78
2483.041	74
2486.768	75
2490.492	77
2494.213	71
2497.93	70
2501.644	79
2505.355	68
2509.062	61
2512.766	60
2516.467	67
2520.165	69
2523.859	73
2527.551	71
2531.239	61
2534.923	64
2538.605	57
2542.283	56
2545.958	59
2549.63	60
2553.299	55
2556.964	52
2560.626	61
2564.285	57
2567.941	49
2571.594	53
2575.243	54
2578.89	54
2582.533	55
2586.173	52
2589.809	48
2593.443	62
2597.073	45
2600.701	58
2604.325	41
2607.946	33
2611.564	41
2615.178	46
2618.79	42
2622.398	47
2626.004	50
2629.606	41
2633.205	44
2636.801	42
2640.394	46
2643.983	44
2647.57	36
2651.153	32
2654.734	37
2658.311	43
2661.885	38
2665.456	39
2669.025	44
2672.589	34
2676.151	38
2679.71	36
2683.266	33
2686.819	39
2690.368	38
2693.915	36
2697.458	27
2700.999	26
2704.536	34
2708.071	31
2711.602	25
2715.13	29
2718.656	21
2722.178	27
2725.697	25
2729.214	23
2732.727	31
2736.237	26
2739.744	22
2743.249	20
2746.75	18
2750.248	26
2753.743	20
2757.236	16
2760.725	15
2764.211	13
2767.695	12
2771.175	11
2774.652	18
2778.127	14
2781.598	13
2785.067	19
2788.532	12
2791.995	21
2795.455	18
2798.911	17
2802.365	15
2805.816	13
2809.264	17
2812.709	6
2816.151	19
2819.59	29
2823.026	15
2826.46	22
2829.89	17
2833.318	13
2836.742	20
2840.164	15
2843.583	14
2846.999	19
2850.412	20
2853.822	16
2857.229	21
2860.634	19
2864.035	14
2867.434	20
2870.83	19
2874.223	20
2877.613	20
2881	27
2884.385	28
2887.766	30
2891.145	26
2894.521	29
2897.894	25
2901.264	32
2904.631	23
2907.996	30
2911.358	34
2914.717	26
2918.073	30
2921.426	24
2924.777	27
2928.124	32
2931.469	34
2934.811	45
2938.15	44
2941.487	43
2944.821	38
2948.152	47
2951.48	41
2954.805	40
2958.128	38
2961.447	41
2964.765	36
2968.079	35
2971.39	39
2974.699	28
2978.005	36
2981.308	31
2984.609	33
2987.907	38
2991.202	38
2994.494	38
2997.784	31
3001.07	34
3004.355	38
3007.636	40
3010.915	42
3014.191	37
3017.464	45
3020.734	43
3024.002	48
3027.267	50
3030.53	46
3033.789	47
3037.046	48
3040.301	43
3043.552	52
3046.801	50
3050.048	54
3053.291	55
3056.532	58
3059.771	60
3063.006	63
3066.239	61
3069.469	76
3072.697	71
3075.922	77
3079.144	65
3082.364	73
3085.581	83
3088.795	89
3092.007	89
3095.216	88
3098.423	84
3101.627	87
3104.828	97
3108.026	96
3111.222	103
3114.416	104
3117.607	104
3120.795	104
3123.98	107
3127.163	114
3130.344	110
3133.521	117
3136.696	112
3139.869	120
3143.039	131
3146.206	128
3149.371	128
3152.533	131
3155.693	134
3158.85	130
3162.005	133
3165.157	138
3168.306	132
3171.453	135
3174.597	134
3177.739	134
3180.878	140
3184.014	128
3187.149	128
3190.28	128
3193.409	142
3196.536	133
3199.659	138
3202.781	139
3205.9	127
3209.016	138
3212.13	137
3215.241	135
3218.35	133
3221.456	138
3224.56	124
3227.661	121
3230.76	121
3233.856	126
3236.95	118
3240.041	109
3243.13	121
3246.216	113
3249.3	112
3252.382	112
3255.46	110
3258.537	112
3261.611	104
3264.682	108
3267.751	107
3270.818	97
3273.882	106
3276.943	98
3280.002	105
3283.059	96
3286.113	88
3289.165	95
3292.214	91
3295.261	104
3298.306	92
3301.348	99
3304.387	94
3307.425	97
3310.459	91
3313.492	92
3316.521	94
3319.549	97
3322.574	85
3325.597	88
3328.617	84
3331.635	86
3334.65	93
3337.663	81
3340.674	84
3343.682	90
3346.688	87
3349.691	87
3352.692	88
3355.691	96
3358.687	91
3361.681	86
3364.673	91
3367.662	83
3370.649	84
3373.633	78
3376.615	72
3379.595	70
3382.572	72
3385.547	71
3388.52	73
3391.49	64
3394.458	70
3397.424	76
3400.387	73
3403.348	60
3406.307	55
3409.263	69
3412.217	68
3415.168	67
3418.118	55
3421.065	54
3424.009	52
3426.951	52
3429.891	54
3432.829	47
3435.764	54
3438.697	49
3441.628	44
3444.557	43
3447.483	44
3450.407	30
3453.328	35
3456.247	33
3459.164	29
3462.079	24
3464.991	24
3467.902	24
3470.809	24
3473.715	18
3476.618	17
3479.519	15
3482.418	16
3485.315	14
3488.209	4
3491.101	-1
3493.99	9
3496.878	6
3499.763	0
3502.646	3
3505.527	1
3508.405	0
3511.281	-4
3514.155	-2
3517.027	-9
3519.897	-2
3522.764	-8
3525.629	-1
3528.492	-10
3531.352	-18
3534.211	-15
3537.067	-22
3539.921	-16
3542.773	-22
3545.622	-22
3548.469	-16
3551.315	-22
3554.157	-26
3556.998	-21
3559.837	-26
3562.673	-22
3565.507	-28
3568.339	-24
3571.169	-26
3573.996	-20
3576.822	-34
3579.645	-33
3582.466	-30
3585.285	-30
3588.101	-36
3590.916	-31
3593.728	-36
3596.538	-42
3599.346	-34
3602.152	-37
3604.956	-32
3607.757	-28
3610.556	-32
3613.354	-35
3616.149	-39
3618.942	-38
3621.732	-34
3624.521	-37
3627.307	-33
3630.092	-40
3632.874	-41
3635.654	-43
3638.432	-37
3641.208	-43
3643.982	-37
3646.753	-44
3649.523	-43
3652.29	-42
3655.055	-40
3657.818	-42
3660.579	-41
3663.338	-38
3666.095	-45
3668.849	-48
3671.602	-47
3674.352	-45
3677.101	-49
3679.847	-43
3682.591	-54
3685.333	-42
3688.073	-53
3690.811	-44
3693.547	-50
3696.281	-43
3699.013	-45
3701.742	-51
3704.47	-45
3707.195	-48
3709.919	-50
3712.64	-50
3715.359	-53
3718.076	-54
3720.792	-51
3723.505	-51
3726.216	-48
3728.925	-50
3731.632	-50
3734.336	-47
3737.039	-48
3739.74	-53
3742.439	-59
3745.136	-49
3747.83	-51
3750.523	-54
3753.213	-63
3755.902	-51
3758.589	-53
3761.273	-52
3763.956	-52
3766.636	-47
3769.315	-44
3771.991	-49
3774.665	-54
3777.338	-49
3780.008	-52
3782.677	-56
3785.343	-54
3788.007	-55
3790.67	-56
3793.33	-55
3795.989	-57
3798.645	-58
3801.299	-50
3803.952	-55
3806.602	-54
3809.251	-56
3811.897	-56
3814.542	-52
3817.184	-56
3819.825	-42
3822.463	-52
3825.1	-46
3827.735	-58
3830.367	-55
3832.998	-62
3835.627	-54
3838.253	-54
3840.878	-49
3843.501	-48
3846.122	-52
3848.741	-54
3851.358	-50
3853.973	-48
3856.586	-48
3859.197	-47
3861.806	-49
3864.414	-57
3867.019	-55
3869.622	-46
3872.224	-42
3874.823	-33
3877.421	-27
3880.016	-11
3882.61	16
3885.202	16
3887.792	8
3890.38	-12
3892.966	-32
3895.55	-44
3898.132	-53
3900.713	-52
3903.291	-58
3905.868	-55
3908.442	-51
3911.015	-56
3913.586	-60
3916.155	-54
3918.722	-56
3921.287	-52
3923.85	-49
3926.411	-52
3928.971	-60
3931.528	-56
3934.084	-50
3936.638	-52
3939.19	-58
3941.74	-54
3944.288	-55
3946.834	-57
3949.378	-52
3951.921	-62
3954.462	-55
3957	-47
3959.537	-45
3962.072	-44
3964.606	-52
3967.137	-50
3969.667	-50
3972.194	-52
3974.72	-53
3977.244	-55
3979.766	-54
3982.286	-56
3984.805	-64
3987.321	-55
3989.836	-51
3992.349	-55
3994.86	-55
3997.369	-53
3999.877	-55
4002.382	-49
4004.886	-48
4007.388	-55
4009.888	-50
4012.386	-54
4014.883	-48
4017.377	-51
4019.87	-53
4022.361	-58
4024.85	-57
4027.338	-60
4029.823	-58
4032.307	-57
4034.789	-55
4037.269	-50
4039.747	-53
4042.224	-56
4044.699	-53
4047.172	-55
4049.643	-54
4052.112	-51
4054.58	-52
4057.046	-50
4059.51	-55
4061.972	-61
4064.432	-50
4066.891	-54
4069.348	-54
4071.803	-47
4074.256	-50
4076.708	-54
4079.158	-56
4081.606	-52
4084.052	-55
4086.497	-48
4088.939	-49
4091.38	-62
4093.819	-52
4096.257	-53
4098.693	-53
4101.127	-49
4103.559	-56
4105.989	20
4108.418	18
4110.845	18
4113.27	12
4115.694	11
4118.115	10
4120.535	-54
4122.954	-47
4125.37	-52
4127.785	-53
4130.198	-53
4132.609	-57
4135.019	-59
4137.427	-58
4139.833	-59
4142.237	-57
