Data from 2018-3-7_conc=4_n=8_RamanShift_01.txt Node
Date: Wed Mar 07 12:12:22 IST 2018
User: aro
Spectrometer: QEPB0276
Trigger mode: 0
Integration Time (sec): 3.000000E1
Scans to average: 1
Electric dark correction enabled: true
Nonlinearity correction enabled: false
Boxcar width: 0
XAxis mode: Raman Shifts
Number of Pixels in Spectrum: 1044
>>>>>Begin Spectral Data<<<<<
160.701	11
166.742	23
172.777	57
178.805	168
184.826	418
190.841	884
196.849	1474
202.85	1918
208.845	2083
214.833	2111
220.815	2079
226.789	2075
232.758	2086
238.719	2093
244.674	2078
250.623	2052
256.565	2058
262.5	2005
268.429	1979
274.351	1974
280.267	1966
286.176	1973
292.079	1943
297.975	1940
303.865	1943
309.748	1960
315.625	1939
321.495	1921
327.359	1952
333.217	1951
339.068	1967
344.912	1947
350.751	1947
356.583	1952
362.408	1939
368.227	1952
374.04	1973
379.847	1986
385.647	1975
391.44	1959
397.228	1988
403.009	2013
408.784	2019
414.553	2032
420.315	2019
426.071	2013
431.821	2022
437.565	2011
443.302	2040
449.033	2023
454.758	2021
460.477	1984
466.189	1974
471.896	1961
477.596	1948
483.29	1948
488.978	1973
494.66	1947
500.335	1909
506.005	1847
511.668	1760
517.325	1735
522.977	1671
528.622	1652
534.261	1628
539.894	1603
545.521	1575
551.141	1581
556.756	1558
562.365	1559
567.968	1551
573.565	1537
579.155	1527
584.74	1530
590.319	1514
595.892	1527
601.459	1509
607.02	1499
612.575	1492
618.124	1477
623.667	1459
629.204	1443
634.735	1432
640.261	1417
645.781	1408
651.294	1402
656.802	1405
662.304	1395
667.8	1393
673.29	1386
678.775	1390
684.254	1388
689.726	1365
695.193	1375
700.655	1371
706.11	1350
711.56	1349
717.004	1336
722.442	1327
727.874	1334
733.301	1328
738.722	1311
744.137	1318
749.547	1316
754.951	1300
760.349	1299
765.741	1311
771.128	1309
776.509	1320
781.885	1348
787.254	1340
792.618	1341
797.977	1348
803.33	1306
808.677	1310
814.019	1312
819.355	1293
824.686	1289
830.011	1283
835.33	1271
840.644	1271
845.952	1271
851.255	1262
856.552	1267
861.844	1230
867.13	1254
872.41	1226
877.686	1241
882.955	1212
888.219	1224
893.478	1207
898.731	1179
903.979	1158
909.221	1150
914.458	1152
919.69	1155
924.916	1154
930.136	1151
935.351	1150
940.561	1148
945.766	1167
950.965	1144
956.158	1148
961.347	1124
966.529	1116
971.707	1090
976.879	1078
982.046	1086
987.208	1053
992.364	1072
997.515	1062
1002.66	1077
1007.801	1106
1012.936	1108
1018.066	1130
1023.19	1101
1028.309	1109
1033.423	1107
1038.532	1097
1043.636	1077
1048.734	1065
1053.827	1054
1058.915	1058
1063.998	1047
1069.075	1034
1074.147	1018
1079.214	1041
1084.276	1057
1089.333	1034
1094.385	1048
1099.431	1040
1104.472	1053
1109.509	1047
1114.54	1022
1119.565	1000
1124.586	1001
1129.602	988
1134.613	989
1139.618	976
1144.619	966
1149.614	969
1154.604	951
1159.589	982
1164.57	969
1169.545	976
1174.515	985
1179.48	983
1184.44	961
1189.395	973
1194.345	953
1199.29	945
1204.23	961
1209.165	950
1214.095	966
1219.021	953
1223.941	974
1228.856	982
1233.766	973
1238.672	975
1243.572	981
1248.467	969
1253.358	956
1258.244	952
1263.124	920
1268	906
1272.871	898
1277.737	894
1282.599	891
1287.455	882
1292.306	882
1297.153	896
1301.995	891
1306.832	907
1311.664	904
1316.491	905
1321.314	901
1326.132	898
1330.945	874
1335.753	873
1340.556	837
1345.354	829
1350.148	800
1354.937	792
1359.722	781
1364.501	762
1369.276	751
1374.046	727
1378.811	728
1383.572	732
1388.327	728
1393.079	728
1397.825	722
1402.567	727
1407.304	731
1412.036	739
1416.764	741
1421.487	735
1426.205	753
1430.919	728
1435.628	745
1440.333	750
1445.032	742
1449.727	759
1454.418	764
1459.104	752
1463.785	742
1468.462	733
1473.134	709
1477.802	703
1482.465	665
1487.123	659
1491.777	644
1496.426	642
1501.071	633
1505.711	614
1510.347	613
1514.978	618
1519.604	599
1524.226	606
1528.844	608
1533.457	603
1538.065	604
1542.669	599
1547.269	586
1551.864	605
1556.454	619
1561.041	635
1565.622	635
1570.199	632
1574.772	620
1579.34	645
1583.904	649
1588.464	660
1593.019	657
1597.569	663
1602.115	662
1606.657	665
1611.195	661
1615.728	660
1620.256	648
1624.78	643
1629.3	647
1633.816	656
1638.327	659
1642.834	649
1647.336	641
1651.834	644
1656.328	661
1660.817	647
1665.302	645
1669.783	612
1674.259	603
1678.732	590
1683.199	568
1687.663	546
1692.122	514
1696.577	499
1701.028	473
1705.474	435
1709.917	430
1714.355	422
1718.788	424
1723.218	429
1727.643	423
1732.064	429
1736.481	430
1740.893	416
1745.301	415
1749.705	411
1754.105	383
1758.501	379
1762.893	370
1767.28	376
1771.663	357
1776.042	361
1780.417	350
1784.787	343
1789.154	338
1793.516	324
1797.874	321
1802.228	318
1806.578	317
1810.924	308
1815.266	309
1819.603	315
1823.937	319
1828.266	321
1832.591	325
1836.913	319
1841.23	322
1845.543	310
1849.852	327
1854.156	331
1858.457	323
1862.754	328
1867.047	330
1871.335	322
1875.62	325
1879.9	328
1884.177	302
1888.449	315
1892.718	311
1896.982	296
1901.243	291
1905.499	283
1909.752	277
1914	267
1918.245	280
1922.485	254
1926.722	253
1930.954	253
1935.183	256
1939.408	248
1943.628	251
1947.845	250
1952.058	253
1956.267	240
1960.472	237
1964.673	241
1968.87	241
1973.063	238
1977.252	248
1981.438	245
1985.619	231
1989.797	235
1993.971	252
1998.14	241
2002.306	250
2006.469	248
2010.627	245
2014.781	252
2018.932	244
2023.078	239
2027.221	244
2031.36	246
2035.495	235
2039.627	232
2043.754	228
2047.878	231
2051.998	230
2056.114	230
2060.226	211
2064.334	215
2068.439	208
2072.54	215
2076.637	217
2080.73	217
2084.82	214
2088.906	206
2092.988	211
2097.066	196
2101.14	205
2105.211	194
2109.278	192
2113.342	192
2117.401	193
2121.457	187
2125.509	188
2129.558	179
2133.602	184
2137.643	195
2141.681	192
2145.714	189
2149.744	198
2153.77	181
2157.793	190
2161.812	187
2165.827	194
2169.838	180
2173.846	186
2177.851	178
2181.851	184
2185.848	173
2189.841	172
2193.831	174
2197.817	174
2201.799	179
2205.778	178
2209.753	177
2213.725	168
2217.693	178
2221.657	176
2225.618	165
2229.575	155
2233.529	163
2237.479	166
2241.425	160
2245.368	161
2249.307	157
2253.243	158
2257.175	158
2261.104	149
2265.029	149
2268.95	160
2272.868	153
2276.783	151
2280.694	146
2284.601	135
2288.505	143
2292.405	141
2296.302	147
2300.195	137
2304.085	130
2307.971	130
2311.854	133
2315.734	121
2319.609	130
2323.482	123
2327.351	131
2331.216	141
2335.078	149
2338.937	145
2342.792	135
2346.643	135
2350.492	134
2354.336	128
2358.178	125
2362.015	135
2365.85	139
2369.681	136
2373.508	141
2377.333	136
2381.153	134
2384.971	122
2388.785	129
2392.595	129
2396.402	130
2400.206	130
2404.007	127
2407.804	126
2411.597	122
2415.388	128
2419.174	132
2422.958	120
2426.738	133
2430.515	131
2434.289	128
2438.059	127
2441.825	114
2445.589	116
2449.349	117
2453.106	117
2456.859	111
2460.61	111
2464.356	106
2468.1	114
2471.84	104
2475.577	101
2479.311	106
2483.041	98
2486.768	104
2490.492	98
2494.213	103
2497.93	107
2501.644	97
2505.355	89
2509.062	93
2512.766	97
2516.467	89
2520.165	91
2523.859	97
2527.551	82
2531.239	87
2534.923	81
2538.605	84
2542.283	75
2545.958	82
2549.63	79
2553.299	73
2556.964	74
2560.626	75
2564.285	75
2567.941	69
2571.594	69
2575.243	69
2578.89	68
2582.533	70
2586.173	63
2589.809	72
2593.443	74
2597.073	64
2600.701	70
2604.325	57
2607.946	57
2611.564	62
2615.178	68
2618.79	61
2622.398	62
2626.004	57
2629.606	61
2633.205	54
2636.801	53
2640.394	67
2643.983	58
2647.57	70
2651.153	52
2654.734	55
2658.311	61
2661.885	63
2665.456	60
2669.025	59
2672.589	50
2676.151	54
2679.71	51
2683.266	50
2686.819	57
2690.368	48
2693.915	46
2697.458	47
2700.999	55
2704.536	45
2708.071	45
2711.602	46
2715.13	42
2718.656	43
2722.178	44
2725.697	35
2729.214	40
2732.727	45
2736.237	39
2739.744	31
2743.249	35
2746.75	28
2750.248	34
2753.743	33
2757.236	28
2760.725	30
2764.211	23
2767.695	21
2771.175	23
2774.652	25
2778.127	27
2781.598	21
2785.067	27
2788.532	25
2791.995	28
2795.455	17
2798.911	25
2802.365	25
2805.816	25
2809.264	25
2812.709	26
2816.151	23
2819.59	39
2823.026	27
2826.46	33
2829.89	26
2833.318	20
2836.742	35
2840.164	26
2843.583	27
2846.999	30
2850.412	32
2853.822	26
2857.229	35
2860.634	27
2864.035	28
2867.434	29
2870.83	40
2874.223	31
2877.613	30
2881	38
2884.385	38
2887.766	40
2891.145	39
2894.521	38
2897.894	38
2901.264	44
2904.631	33
2907.996	38
2911.358	44
2914.717	47
2918.073	35
2921.426	47
2924.777	52
2928.124	49
2931.469	55
2934.811	54
2938.15	55
2941.487	64
2944.821	50
2948.152	57
2951.48	52
2954.805	56
2958.128	50
2961.447	65
2964.765	52
2968.079	53
2971.39	49
2974.699	48
2978.005	55
2981.308	51
2984.609	47
2987.907	48
2991.202	53
2994.494	47
2997.784	40
3001.07	55
3004.355	55
3007.636	52
3010.915	54
3014.191	52
3017.464	55
3020.734	61
3024.002	61
3027.267	63
3030.53	66
3033.789	62
3037.046	71
3040.301	61
3043.552	75
3046.801	71
3050.048	76
3053.291	75
3056.532	75
3059.771	85
3063.006	85
3066.239	91
3069.469	102
3072.697	98
3075.922	102
3079.144	107
3082.364	111
3085.581	108
3088.795	119
3092.007	118
3095.216	120
3098.423	120
3101.627	117
3104.828	133
3108.026	130
3111.222	121
3114.416	136
3117.607	135
3120.795	131
3123.98	146
3127.163	152
3130.344	151
3133.521	157
3136.696	154
3139.869	159
3143.039	159
3146.206	172
3149.371	169
3152.533	175
3155.693	181
3158.85	173
3162.005	176
3165.157	175
3168.306	173
3171.453	171
3174.597	173
3177.739	180
3180.878	178
3184.014	171
3187.149	174
3190.28	178
3193.409	183
3196.536	184
3199.659	191
3202.781	185
3205.9	185
3209.016	179
3212.13	180
3215.241	188
3218.35	178
3221.456	176
3224.56	167
3227.661	160
3230.76	166
3233.856	161
3236.95	160
3240.041	152
3243.13	165
3246.216	155
3249.3	152
3252.382	151
3255.46	157
3258.537	150
3261.611	140
3264.682	151
3267.751	148
3270.818	133
3273.882	138
3276.943	138
3280.002	135
3283.059	136
3286.113	131
3289.165	127
3292.214	132
3295.261	129
3298.306	128
3301.348	134
3304.387	128
3307.425	122
3310.459	121
3313.492	124
3316.521	127
3319.549	127
3322.574	128
3325.597	119
3328.617	118
3331.635	124
3334.65	126
3337.663	113
3340.674	125
3343.682	116
3346.688	121
3349.691	120
3352.692	119
3355.691	129
3358.687	114
3361.681	120
3364.673	121
3367.662	117
3370.649	112
3373.633	110
3376.615	107
3379.595	109
3382.572	101
3385.547	97
3388.52	95
3391.49	94
3394.458	93
3397.424	99
3400.387	97
3403.348	85
3406.307	93
3409.263	88
3412.217	93
3415.168	93
3418.118	91
3421.065	79
3424.009	81
3426.951	81
3429.891	80
3432.829	72
3435.764	73
3438.697	74
3441.628	61
3444.557	66
3447.483	59
3450.407	52
3453.328	55
3456.247	55
3459.164	50
3462.079	38
3464.991	48
3467.902	42
3470.809	35
3473.715	41
3476.618	28
3479.519	29
3482.418	30
3485.315	22
3488.209	17
3491.101	18
3493.99	20
3496.878	11
3499.763	6
3502.646	7
3505.527	14
3508.405	10
3511.281	7
3514.155	4
3517.027	-1
3519.897	5
3522.764	-3
3525.629	0
3528.492	-7
3531.352	-12
3534.211	-13
3537.067	-14
3539.921	-8
3542.773	-20
3545.622	-15
3548.469	-21
3551.315	-26
3554.157	-27
3556.998	-19
3559.837	-24
3562.673	-23
3565.507	-24
3568.339	-18
3571.169	-27
3573.996	-26
3576.822	-36
3579.645	-34
3582.466	-29
3585.285	-28
3588.101	-34
3590.916	-32
3593.728	-36
3596.538	-39
3599.346	-42
3602.152	-42
3604.956	-37
3607.757	-31
3610.556	-37
3613.354	-51
3616.149	-47
3618.942	-43
3621.732	-46
3624.521	-39
3627.307	-44
3630.092	-41
3632.874	-44
3635.654	-40
3638.432	-40
3641.208	-43
3643.982	-37
3646.753	-45
3649.523	-36
3652.29	-42
3655.055	-47
3657.818	-51
3660.579	-51
3663.338	-48
3666.095	-55
3668.849	-55
3671.602	-51
3674.352	-48
3677.101	-50
3679.847	-51
3682.591	-57
3685.333	-55
3688.073	-59
3690.811	-50
3693.547	-56
3696.281	-47
3699.013	-50
3701.742	-57
3704.47	-50
3707.195	-52
3709.919	-50
3712.64	-53
3715.359	-56
3718.076	-56
3720.792	-56
3723.505	-57
3726.216	-57
3728.925	-54
3731.632	-60
3734.336	-58
3737.039	-49
3739.74	-60
3742.439	-61
3745.136	-57
3747.83	-58
3750.523	-58
3753.213	-58
3755.902	-59
3758.589	-61
3761.273	-58
3763.956	-61
3766.636	-58
3769.315	-56
3771.991	-57
3774.665	-61
3777.338	-54
3780.008	-59
3782.677	-60
3785.343	-55
3788.007	-55
3790.67	-58
3793.33	-53
3795.989	-57
3798.645	-60
3801.299	-56
3803.952	-62
3806.602	-64
3809.251	-63
3811.897	-61
3814.542	-67
3817.184	-63
3819.825	-60
3822.463	-61
3825.1	-56
3827.735	-68
3830.367	-60
3832.998	-61
3835.627	-60
3838.253	-56
3840.878	-57
3843.501	-53
3846.122	-59
3848.741	-59
3851.358	-60
3853.973	-59
3856.586	-55
3859.197	-56
3861.806	-59
3864.414	-64
3867.019	-61
3869.622	-59
3872.224	-45
3874.823	-43
3877.421	-34
3880.016	-17
3882.61	-2
3885.202	-3
3887.792	-8
3890.38	-27
3892.966	-46
3895.55	-51
3898.132	-55
3900.713	-57
3903.291	-63
3905.868	-57
3908.442	-59
3911.015	-56
3913.586	-63
3916.155	-60
3918.722	-64
3921.287	-64
3923.85	-56
3926.411	-65
3928.971	-69
3931.528	-63
3934.084	-61
3936.638	-62
3939.19	-64
3941.74	-56
3944.288	-56
3946.834	-60
3949.378	-62
3951.921	-56
3954.462	-57
3957	-57
3959.537	-56
3962.072	-52
3964.606	-62
3967.137	-58
3969.667	-66
3972.194	-61
3974.72	-55
3977.244	-58
3979.766	-64
3982.286	-64
3984.805	-70
3987.321	-59
3989.836	-52
3992.349	-61
3994.86	-61
3997.369	-61
3999.877	-61
4002.382	-56
4004.886	-55
4007.388	-62
4009.888	-61
4012.386	-60
4014.883	-60
4017.377	-60
4019.87	-60
4022.361	-63
4024.85	-54
4027.338	-65
4029.823	-58
4032.307	-62
4034.789	-60
4037.269	-55
4039.747	-57
4042.224	-57
4044.699	-62
4047.172	-67
4049.643	-66
4052.112	-66
4054.58	-57
4057.046	-61
4059.51	-64
4061.972	-66
4064.432	-58
4066.891	-59
4069.348	-59
4071.803	-60
4074.256	-53
4076.708	-57
4079.158	-67
4081.606	-57
4084.052	-62
4086.497	-57
4088.939	-58
4091.38	-66
4093.819	-67
4096.257	-62
4098.693	-63
4101.127	-60
4103.559	-68
4105.989	18
4108.418	14
4110.845	12
4113.27	13
4115.694	18
4118.115	14
4120.535	-61
4122.954	-59
4125.37	-54
4127.785	-57
4130.198	-61
4132.609	-64
4135.019	-67
4137.427	-68
4139.833	-63
4142.237	-61
