Data from 2018-3-7_conc=6_n=8_RamanShift_01.txt Node
Date: Wed Mar 07 13:19:51 IST 2018
User: aro
Spectrometer: QEPB0276
Trigger mode: 0
Integration Time (sec): 3.000000E1
Scans to average: 1
Electric dark correction enabled: true
Nonlinearity correction enabled: false
Boxcar width: 0
XAxis mode: Raman Shifts
Number of Pixels in Spectrum: 1044
>>>>>Begin Spectral Data<<<<<
160.701	18
166.742	19
172.777	52
178.805	146
184.826	383
190.841	828
196.849	1394
202.85	1817
208.845	1992
214.833	1993
220.815	1956
226.789	1938
232.758	1947
238.719	1949
244.674	1935
250.623	1916
256.565	1881
262.5	1847
268.429	1843
274.351	1826
280.267	1796
286.176	1770
292.079	1783
297.975	1773
303.865	1777
309.748	1759
315.625	1767
321.495	1751
327.359	1770
333.217	1745
339.068	1775
344.912	1773
350.751	1779
356.583	1761
362.408	1771
368.227	1788
374.04	1770
379.847	1777
385.647	1778
391.44	1787
397.228	1797
403.009	1803
408.784	1823
414.553	1820
420.315	1841
426.071	1813
431.821	1840
437.565	1826
443.302	1825
449.033	1825
454.758	1797
460.477	1803
466.189	1782
471.896	1768
477.596	1760
483.29	1756
488.978	1776
494.66	1740
500.335	1701
506.005	1683
511.668	1614
517.325	1584
522.977	1532
528.622	1493
534.261	1454
539.894	1438
545.521	1449
551.141	1427
556.756	1403
562.365	1401
567.968	1410
573.565	1395
579.155	1371
584.74	1388
590.319	1355
595.892	1375
601.459	1357
607.02	1357
612.575	1341
618.124	1346
623.667	1309
629.204	1306
634.735	1281
640.261	1291
645.781	1287
651.294	1285
656.802	1267
662.304	1280
667.8	1269
673.29	1271
678.775	1260
684.254	1269
689.726	1243
695.193	1243
700.655	1240
706.11	1219
711.56	1222
717.004	1216
722.442	1206
727.874	1196
733.301	1196
738.722	1191
744.137	1184
749.547	1195
754.951	1189
760.349	1182
765.741	1195
771.128	1188
776.509	1210
781.885	1218
787.254	1202
792.618	1231
797.977	1192
803.33	1192
808.677	1193
814.019	1182
819.355	1179
824.686	1151
830.011	1171
835.33	1147
840.644	1151
845.952	1158
851.255	1142
856.552	1156
861.844	1149
867.13	1126
872.41	1122
877.686	1119
882.955	1111
888.219	1104
893.478	1096
898.731	1053
903.979	1057
909.221	1042
914.458	1041
919.69	1030
924.916	1044
930.136	1042
935.351	1051
940.561	1054
945.766	1040
950.965	1046
956.158	1040
961.347	1009
966.529	1021
971.707	984
976.879	971
982.046	985
987.208	978
992.364	978
997.515	968
1002.66	996
1007.801	993
1012.936	999
1018.066	1002
1023.19	998
1028.309	994
1033.423	988
1038.532	985
1043.636	977
1048.734	972
1053.827	958
1058.915	952
1063.998	950
1069.075	938
1074.147	947
1079.214	958
1084.276	957
1089.333	956
1094.385	950
1099.431	956
1104.472	944
1109.509	943
1114.54	931
1119.565	918
1124.586	900
1129.602	893
1134.613	899
1139.618	874
1144.619	873
1149.614	884
1154.604	883
1159.589	900
1164.57	894
1169.545	891
1174.515	898
1179.48	880
1184.44	883
1189.395	865
1194.345	866
1199.29	855
1204.23	870
1209.165	864
1214.095	882
1219.021	877
1223.941	875
1228.856	872
1233.766	879
1238.672	886
1243.572	890
1248.467	896
1253.358	875
1258.244	854
1263.124	834
1268	826
1272.871	817
1277.737	807
1282.599	801
1287.455	795
1292.306	793
1297.153	801
1301.995	814
1306.832	807
1311.664	812
1316.491	827
1321.314	819
1326.132	812
1330.945	804
1335.753	782
1340.556	774
1345.354	760
1350.148	748
1354.937	740
1359.722	717
1364.501	692
1369.276	687
1374.046	669
1378.811	665
1383.572	671
1388.327	662
1393.079	662
1397.825	661
1402.567	665
1407.304	683
1412.036	676
1416.764	681
1421.487	696
1426.205	681
1430.919	694
1435.628	687
1440.333	688
1445.032	698
1449.727	717
1454.418	706
1459.104	695
1463.785	691
1468.462	674
1473.134	675
1477.802	641
1482.465	634
1487.123	619
1491.777	609
1496.426	602
1501.071	598
1505.711	587
1510.347	588
1514.978	576
1519.604	570
1524.226	566
1528.844	566
1533.457	561
1538.065	563
1542.669	550
1547.269	553
1551.864	567
1556.454	576
1561.041	580
1565.622	585
1570.199	590
1574.772	589
1579.34	596
1583.904	610
1588.464	625
1593.019	613
1597.569	621
1602.115	626
1606.657	619
1611.195	613
1615.728	622
1620.256	616
1624.78	620
1629.3	605
1633.816	623
1638.327	617
1642.834	627
1647.336	615
1651.834	604
1656.328	628
1660.817	622
1665.302	610
1669.783	591
1674.259	571
1678.732	557
1683.199	547
1687.663	522
1692.122	499
1696.577	479
1701.028	443
1705.474	420
1709.917	409
1714.355	417
1718.788	399
1723.218	402
1727.643	411
1732.064	404
1736.481	408
1740.893	393
1745.301	381
1749.705	378
1754.105	368
1758.501	364
1762.893	361
1767.28	344
1771.663	341
1776.042	344
1780.417	329
1784.787	330
1789.154	320
1793.516	309
1797.874	300
1802.228	303
1806.578	295
1810.924	285
1815.266	286
1819.603	298
1823.937	292
1828.266	294
1832.591	287
1836.913	303
1841.23	308
1845.543	301
1849.852	310
1854.156	312
1858.457	309
1862.754	317
1867.047	308
1871.335	305
1875.62	306
1879.9	308
1884.177	293
1888.449	297
1892.718	293
1896.982	283
1901.243	270
1905.499	273
1909.752	272
1914	260
1918.245	256
1922.485	252
1926.722	255
1930.954	240
1935.183	250
1939.408	254
1943.628	236
1947.845	242
1952.058	245
1956.267	229
1960.472	232
1964.673	230
1968.87	229
1973.063	226
1977.252	232
1981.438	228
1985.619	227
1989.797	225
1993.971	234
1998.14	229
2002.306	235
2006.469	244
2010.627	236
2014.781	238
2018.932	229
2023.078	239
2027.221	239
2031.36	240
2035.495	223
2039.627	222
2043.754	226
2047.878	224
2051.998	220
2056.114	220
2060.226	210
2064.334	211
2068.439	213
2072.54	210
2076.637	211
2080.73	205
2084.82	201
2088.906	203
2092.988	198
2097.066	196
2101.14	190
2105.211	196
2109.278	199
2113.342	187
2117.401	184
2121.457	183
2125.509	180
2129.558	180
2133.602	174
2137.643	182
2141.681	171
2145.714	178
2149.744	186
2153.77	184
2157.793	180
2161.812	186
2165.827	179
2169.838	174
2173.846	177
2177.851	176
2181.851	172
2185.848	171
2189.841	171
2193.831	167
2197.817	172
2201.799	174
2205.778	169
2209.753	173
2213.725	164
2217.693	170
2221.657	173
2225.618	169
2229.575	164
2233.529	164
2237.479	170
2241.425	153
2245.368	154
2249.307	159
2253.243	149
2257.175	149
2261.104	149
2265.029	149
2268.95	147
2272.868	147
2276.783	139
2280.694	133
2284.601	134
2288.505	137
2292.405	136
2296.302	136
2300.195	135
2304.085	127
2307.971	123
2311.854	126
2315.734	118
2319.609	131
2323.482	124
2327.351	132
2331.216	134
2335.078	141
2338.937	137
2342.792	127
2346.643	118
2350.492	123
2354.336	120
2358.178	125
2362.015	125
2365.85	129
2369.681	134
2373.508	133
2377.333	133
2381.153	126
2384.971	125
2388.785	126
2392.595	122
2396.402	126
2400.206	130
2404.007	122
2407.804	127
2411.597	126
2415.388	120
2419.174	127
2422.958	121
2426.738	120
2430.515	118
2434.289	120
2438.059	114
2441.825	113
2445.589	114
2449.349	122
2453.106	116
2456.859	103
2460.61	112
2464.356	103
2468.1	111
2471.84	105
2475.577	106
2479.311	106
2483.041	101
2486.768	108
2490.492	98
2494.213	102
2497.93	100
2501.644	101
2505.355	89
2509.062	93
2512.766	91
2516.467	86
2520.165	89
2523.859	97
2527.551	87
2531.239	92
2534.923	82
2538.605	81
2542.283	77
2545.958	85
2549.63	82
2553.299	73
2556.964	73
2560.626	77
2564.285	77
2567.941	70
2571.594	68
2575.243	72
2578.89	69
2582.533	76
2586.173	68
2589.809	72
2593.443	74
2597.073	65
2600.701	70
2604.325	57
2607.946	54
2611.564	67
2615.178	63
2618.79	67
2622.398	70
2626.004	65
2629.606	55
2633.205	67
2636.801	58
2640.394	62
2643.983	56
2647.57	57
2651.153	49
2654.734	54
2658.311	59
2661.885	62
2665.456	53
2669.025	55
2672.589	53
2676.151	56
2679.71	54
2683.266	45
2686.819	58
2690.368	52
2693.915	55
2697.458	48
2700.999	46
2704.536	49
2708.071	46
2711.602	39
2715.13	42
2718.656	43
2722.178	40
2725.697	43
2729.214	41
2732.727	49
2736.237	44
2739.744	36
2743.249	39
2746.75	34
2750.248	37
2753.743	31
2757.236	29
2760.725	26
2764.211	27
2767.695	22
2771.175	20
2774.652	21
2778.127	25
2781.598	29
2785.067	20
2788.532	24
2791.995	29
2795.455	25
2798.911	29
2802.365	31
2805.816	28
2809.264	30
2812.709	22
2816.151	31
2819.59	39
2823.026	34
2826.46	34
2829.89	30
2833.318	29
2836.742	32
2840.164	19
2843.583	30
2846.999	32
2850.412	30
2853.822	33
2857.229	34
2860.634	26
2864.035	28
2867.434	36
2870.83	41
2874.223	43
2877.613	42
2881	43
2884.385	43
2887.766	47
2891.145	45
2894.521	47
2897.894	42
2901.264	44
2904.631	46
2907.996	44
2911.358	49
2914.717	44
2918.073	47
2921.426	47
2924.777	54
2928.124	51
2931.469	52
2934.811	62
2938.15	62
2941.487	67
2944.821	61
2948.152	63
2951.48	58
2954.805	56
2958.128	66
2961.447	63
2964.765	53
2968.079	58
2971.39	58
2974.699	53
2978.005	59
2981.308	56
2984.609	60
2987.907	52
2991.202	66
2994.494	56
2997.784	50
3001.07	51
3004.355	56
3007.636	66
3010.915	58
3014.191	56
3017.464	62
3020.734	69
3024.002	69
3027.267	65
3030.53	69
3033.789	63
3037.046	72
3040.301	76
3043.552	79
3046.801	80
3050.048	82
3053.291	86
3056.532	90
3059.771	84
3063.006	98
3066.239	93
3069.469	106
3072.697	104
3075.922	115
3079.144	106
3082.364	110
3085.581	117
3088.795	120
3092.007	126
3095.216	132
3098.423	125
3101.627	122
3104.828	139
3108.026	140
3111.222	144
3114.416	146
3117.607	153
3120.795	155
3123.98	154
3127.163	160
3130.344	168
3133.521	164
3136.696	172
3139.869	173
3143.039	171
3146.206	185
3149.371	182
3152.533	191
3155.693	178
3158.85	190
3162.005	188
3165.157	188
3168.306	195
3171.453	185
3174.597	192
3177.739	196
3180.878	201
3184.014	192
3187.149	193
3190.28	194
3193.409	196
3196.536	201
3199.659	202
3202.781	194
3205.9	200
3209.016	196
3212.13	192
3215.241	185
3218.35	192
3221.456	197
3224.56	185
3227.661	185
3230.76	177
3233.856	187
3236.95	173
3240.041	162
3243.13	177
3246.216	167
3249.3	163
3252.382	162
3255.46	168
3258.537	150
3261.611	154
3264.682	158
3267.751	154
3270.818	146
3273.882	149
3276.943	148
3280.002	140
3283.059	134
3286.113	139
3289.165	138
3292.214	142
3295.261	134
3298.306	135
3301.348	140
3304.387	131
3307.425	136
3310.459	130
3313.492	131
3316.521	132
3319.549	142
3322.574	137
3325.597	135
3328.617	124
3331.635	129
3334.65	136
3337.663	116
3340.674	128
3343.682	131
3346.688	126
3349.691	132
3352.692	133
3355.691	137
3358.687	133
3361.681	124
3364.673	128
3367.662	125
3370.649	126
3373.633	122
3376.615	119
3379.595	111
3382.572	116
3385.547	119
3388.52	114
3391.49	110
3394.458	99
3397.424	109
3400.387	109
3403.348	98
3406.307	100
3409.263	102
3412.217	97
3415.168	104
3418.118	90
3421.065	90
3424.009	91
3426.951	86
3429.891	90
3432.829	87
3435.764	89
3438.697	88
3441.628	73
3444.557	84
3447.483	75
3450.407	67
3453.328	68
3456.247	67
3459.164	59
3462.079	47
3464.991	52
3467.902	51
3470.809	46
3473.715	45
3476.618	37
3479.519	34
3482.418	36
3485.315	32
3488.209	27
3491.101	21
3493.99	27
3496.878	20
3499.763	16
3502.646	20
3505.527	19
3508.405	19
3511.281	13
3514.155	14
3517.027	4
3519.897	15
3522.764	4
3525.629	2
3528.492	2
3531.352	-4
3534.211	-10
3537.067	-6
3539.921	-8
3542.773	-10
3545.622	-5
3548.469	-9
3551.315	-7
3554.157	-12
3556.998	-14
3559.837	-16
3562.673	-14
3565.507	-12
3568.339	-13
3571.169	-16
3573.996	-16
3576.822	-26
3579.645	-27
3582.466	-23
3585.285	-29
3588.101	-29
3590.916	-22
3593.728	-30
3596.538	-31
3599.346	-32
3602.152	-34
3604.956	-26
3607.757	-28
3610.556	-27
3613.354	-33
3616.149	-36
3618.942	-34
3621.732	-33
3624.521	-33
3627.307	-30
3630.092	-36
3632.874	-39
3635.654	-41
3638.432	-37
3641.208	-42
3643.982	-34
3646.753	-42
3649.523	-45
3652.29	-43
3655.055	-40
3657.818	-44
3660.579	-49
3663.338	-43
3666.095	-46
3668.849	-41
3671.602	-43
3674.352	-37
3677.101	-43
3679.847	-39
3682.591	-47
3685.333	-41
3688.073	-54
3690.811	-43
3693.547	-45
3696.281	-46
3699.013	-44
3701.742	-52
3704.47	-44
3707.195	-48
3709.919	-48
3712.64	-49
3715.359	-49
3718.076	-52
3720.792	-48
3723.505	-52
3726.216	-46
3728.925	-55
3731.632	-42
3734.336	-51
3737.039	-40
3739.74	-51
3742.439	-56
3745.136	-53
3747.83	-47
3750.523	-49
3753.213	-59
3755.902	-50
3758.589	-49
3761.273	-50
3763.956	-55
3766.636	-50
3769.315	-46
3771.991	-51
3774.665	-57
3777.338	-56
3780.008	-54
3782.677	-61
3785.343	-54
3788.007	-58
3790.67	-53
3793.33	-51
3795.989	-59
3798.645	-53
3801.299	-50
3803.952	-51
3806.602	-57
3809.251	-49
3811.897	-57
3814.542	-57
3817.184	-57
3819.825	-49
3822.463	-57
3825.1	-50
3827.735	-57
3830.367	-57
3832.998	-59
3835.627	-55
3838.253	-54
3840.878	-52
3843.501	-57
3846.122	-58
3848.741	-56
3851.358	-55
3853.973	-54
3856.586	-55
3859.197	-52
3861.806	-50
3864.414	-54
3867.019	-53
3869.622	-47
3872.224	-36
3874.823	-29
3877.421	-22
3880.016	-9
3882.61	5
3885.202	4
3887.792	-5
3890.38	-20
3892.966	-42
3895.55	-49
3898.132	-55
3900.713	-55
3903.291	-56
3905.868	-53
3908.442	-57
3911.015	-55
3913.586	-61
3916.155	-57
3918.722	-52
3921.287	-54
3923.85	-51
3926.411	-56
3928.971	-63
3931.528	-53
3934.084	-49
3936.638	-48
3939.19	-56
3941.74	-49
3944.288	-54
3946.834	-53
3949.378	-59
3951.921	-55
3954.462	-63
3957	-45
3959.537	-45
3962.072	-51
3964.606	-54
3967.137	-52
3969.667	-58
3972.194	-52
3974.72	-51
3977.244	-49
3979.766	-54
3982.286	-52
3984.805	-62
3987.321	-51
3989.836	-50
3992.349	-54
3994.86	-57
3997.369	-56
3999.877	-58
4002.382	-49
4004.886	-50
4007.388	-55
4009.888	-51
4012.386	-58
4014.883	-53
4017.377	-52
4019.87	-57
4022.361	-65
4024.85	-57
4027.338	-64
4029.823	-61
4032.307	-57
4034.789	-55
4037.269	-57
4039.747	-57
4042.224	-55
4044.699	-51
4047.172	-56
4049.643	-56
4052.112	-52
4054.58	-52
4057.046	-51
4059.51	-57
4061.972	-61
4064.432	-52
4066.891	-50
4069.348	-46
4071.803	-49
4074.256	-59
4076.708	-53
4079.158	-61
4081.606	-55
4084.052	-56
4086.497	-50
4088.939	-52
4091.38	-56
4093.819	-61
4096.257	-60
4098.693	-58
4101.127	-53
4103.559	-57
4105.989	10
4108.418	8
4110.845	4
4113.27	10
4115.694	13
4118.115	11
4120.535	-58
4122.954	-53
4125.37	-53
4127.785	-52
4130.198	-54
4132.609	-57
4135.019	-55
4137.427	-60
4139.833	-59
4142.237	-61
