Data from 2018-3-7_conc=5_n=5_RamanShift_05.txt Node
Date: Wed Mar 07 12:39:22 IST 2018
User: aro
Spectrometer: QEPB0276
Trigger mode: 0
Integration Time (sec): 3.000000E1
Scans to average: 1
Electric dark correction enabled: true
Nonlinearity correction enabled: false
Boxcar width: 0
XAxis mode: Raman Shifts
Number of Pixels in Spectrum: 1044
>>>>>Begin Spectral Data<<<<<
160.701	8
166.742	17
172.777	56
178.805	167
184.826	473
190.841	1023
196.849	1703
202.85	2253
208.845	2461
214.833	2466
220.815	2427
226.789	2418
232.758	2442
238.719	2414
244.674	2395
250.623	2392
256.565	2349
262.5	2309
268.429	2290
274.351	2256
280.267	2229
286.176	2242
292.079	2218
297.975	2225
303.865	2219
309.748	2200
315.625	2204
321.495	2189
327.359	2187
333.217	2172
339.068	2179
344.912	2176
350.751	2201
356.583	2201
362.408	2172
368.227	2194
374.04	2215
379.847	2221
385.647	2212
391.44	2220
397.228	2228
403.009	2236
408.784	2258
414.553	2258
420.315	2246
426.071	2262
431.821	2258
437.565	2235
443.302	2258
449.033	2233
454.758	2241
460.477	2221
466.189	2216
471.896	2204
477.596	2195
483.29	2172
488.978	2187
494.66	2194
500.335	2140
506.005	2095
511.668	2034
517.325	2004
522.977	1934
528.622	1913
534.261	1883
539.894	1855
545.521	1855
551.141	1832
556.756	1826
562.365	1804
567.968	1782
573.565	1776
579.155	1786
584.74	1789
590.319	1761
595.892	1780
601.459	1745
607.02	1753
612.575	1717
618.124	1717
623.667	1705
629.204	1710
634.735	1680
640.261	1661
645.781	1678
651.294	1666
656.802	1654
662.304	1657
667.8	1628
673.29	1657
678.775	1631
684.254	1631
689.726	1619
695.193	1612
700.655	1599
706.11	1603
711.56	1576
717.004	1581
722.442	1567
727.874	1565
733.301	1572
738.722	1556
744.137	1567
749.547	1548
754.951	1548
760.349	1548
765.741	1558
771.128	1546
776.509	1568
781.885	1580
787.254	1581
792.618	1570
797.977	1561
803.33	1554
808.677	1549
814.019	1541
819.355	1515
824.686	1499
830.011	1503
835.33	1503
840.644	1503
845.952	1493
851.255	1490
856.552	1499
861.844	1471
867.13	1473
872.41	1478
877.686	1460
882.955	1439
888.219	1446
893.478	1427
898.731	1419
903.979	1377
909.221	1361
914.458	1378
919.69	1365
924.916	1398
930.136	1387
935.351	1368
940.561	1379
945.766	1379
950.965	1370
956.158	1372
961.347	1340
966.529	1338
971.707	1308
976.879	1292
982.046	1289
987.208	1279
992.364	1272
997.515	1276
1002.66	1281
1007.801	1300
1012.936	1297
1018.066	1323
1023.19	1304
1028.309	1303
1033.423	1305
1038.532	1285
1043.636	1300
1048.734	1273
1053.827	1245
1058.915	1252
1063.998	1227
1069.075	1233
1074.147	1226
1079.214	1233
1084.276	1266
1089.333	1252
1094.385	1263
1099.431	1234
1104.472	1250
1109.509	1236
1114.54	1207
1119.565	1204
1124.586	1191
1129.602	1175
1134.613	1180
1139.618	1169
1144.619	1161
1149.614	1168
1154.604	1172
1159.589	1157
1164.57	1168
1169.545	1164
1174.515	1171
1179.48	1162
1184.44	1159
1189.395	1154
1194.345	1138
1199.29	1123
1204.23	1134
1209.165	1147
1214.095	1148
1219.021	1146
1223.941	1157
1228.856	1164
1233.766	1159
1238.672	1169
1243.572	1159
1248.467	1153
1253.358	1146
1258.244	1125
1263.124	1103
1268	1083
1272.871	1074
1277.737	1070
1282.599	1057
1287.455	1076
1292.306	1060
1297.153	1070
1301.995	1083
1306.832	1088
1311.664	1080
1316.491	1098
1321.314	1081
1326.132	1080
1330.945	1073
1335.753	1047
1340.556	1032
1345.354	999
1350.148	987
1354.937	966
1359.722	948
1364.501	922
1369.276	915
1374.046	886
1378.811	864
1383.572	864
1388.327	863
1393.079	862
1397.825	873
1402.567	888
1407.304	883
1412.036	900
1416.764	897
1421.487	890
1426.205	907
1430.919	906
1435.628	908
1440.333	921
1445.032	903
1449.727	932
1454.418	923
1459.104	918
1463.785	908
1468.462	898
1473.134	880
1477.802	846
1482.465	825
1487.123	821
1491.777	790
1496.426	770
1501.071	776
1505.711	760
1510.347	748
1514.978	759
1519.604	728
1524.226	732
1528.844	726
1533.457	723
1538.065	736
1542.669	741
1547.269	725
1551.864	736
1556.454	744
1561.041	749
1565.622	762
1570.199	764
1574.772	770
1579.34	779
1583.904	792
1588.464	804
1593.019	815
1597.569	814
1602.115	815
1606.657	811
1611.195	821
1615.728	813
1620.256	805
1624.78	791
1629.3	810
1633.816	800
1638.327	813
1642.834	813
1647.336	813
1651.834	808
1656.328	801
1660.817	803
1665.302	782
1669.783	771
1674.259	757
1678.732	729
1683.199	704
1687.663	680
1692.122	653
1696.577	613
1701.028	581
1705.474	544
1709.917	533
1714.355	529
1718.788	516
1723.218	520
1727.643	528
1732.064	537
1736.481	530
1740.893	520
1745.301	513
1749.705	510
1754.105	486
1758.501	474
1762.893	472
1767.28	455
1771.663	442
1776.042	445
1780.417	437
1784.787	429
1789.154	426
1793.516	409
1797.874	392
1802.228	394
1806.578	376
1810.924	373
1815.266	382
1819.603	384
1823.937	389
1828.266	386
1832.591	404
1836.913	398
1841.23	393
1845.543	375
1849.852	400
1854.156	407
1858.457	401
1862.754	410
1867.047	410
1871.335	398
1875.62	400
1879.9	411
1884.177	394
1888.449	397
1892.718	388
1896.982	382
1901.243	361
1905.499	362
1909.752	354
1914	349
1918.245	344
1922.485	336
1926.722	329
1930.954	317
1935.183	329
1939.408	319
1943.628	309
1947.845	310
1952.058	307
1956.267	297
1960.472	304
1964.673	287
1968.87	301
1973.063	307
1977.252	301
1981.438	298
1985.619	303
1989.797	295
1993.971	309
1998.14	305
2002.306	309
2006.469	324
2010.627	318
2014.781	316
2018.932	307
2023.078	306
2027.221	306
2031.36	300
2035.495	310
2039.627	298
2043.754	301
2047.878	291
2051.998	295
2056.114	287
2060.226	287
2064.334	280
2068.439	280
2072.54	275
2076.637	282
2080.73	267
2084.82	284
2088.906	268
2092.988	268
2097.066	247
2101.14	258
2105.211	256
2109.278	243
2113.342	238
2117.401	232
2121.457	240
2125.509	241
2129.558	242
2133.602	243
2137.643	245
2141.681	245
2145.714	239
2149.744	246
2153.77	248
2157.793	251
2161.812	259
2165.827	243
2169.838	240
2173.846	233
2177.851	231
2181.851	234
2185.848	231
2189.841	221
2193.831	227
2197.817	226
2201.799	229
2205.778	224
2209.753	229
2213.725	230
2217.693	223
2221.657	221
2225.618	221
2229.575	216
2233.529	221
2237.479	224
2241.425	221
2245.368	210
2249.307	217
2253.243	208
2257.175	202
2261.104	191
2265.029	195
2268.95	203
2272.868	195
2276.783	187
2280.694	187
2284.601	178
2288.505	188
2292.405	186
2296.302	189
2300.195	183
2304.085	176
2307.971	184
2311.854	178
2315.734	173
2319.609	180
2323.482	174
2327.351	176
2331.216	186
2335.078	191
2338.937	187
2342.792	180
2346.643	181
2350.492	174
2354.336	171
2358.178	172
2362.015	180
2365.85	172
2369.681	188
2373.508	176
2377.333	182
2381.153	177
2384.971	171
2388.785	183
2392.595	180
2396.402	177
2400.206	178
2404.007	182
2407.804	181
2411.597	169
2415.388	175
2419.174	179
2422.958	174
2426.738	182
2430.515	171
2434.289	164
2438.059	167
2441.825	166
2445.589	158
2449.349	156
2453.106	170
2456.859	160
2460.61	160
2464.356	158
2468.1	155
2471.84	156
2475.577	144
2479.311	151
2483.041	153
2486.768	145
2490.492	152
2494.213	148
2497.93	146
2501.644	149
2505.355	139
2509.062	135
2512.766	142
2516.467	138
2520.165	134
2523.859	135
2527.551	129
2531.239	128
2534.923	120
2538.605	115
2542.283	121
2545.958	117
2549.63	116
2553.299	118
2556.964	118
2560.626	112
2564.285	109
2567.941	114
2571.594	112
2575.243	109
2578.89	105
2582.533	100
2586.173	101
2589.809	105
2593.443	109
2597.073	100
2600.701	103
2604.325	93
2607.946	84
2611.564	102
2615.178	101
2618.79	102
2622.398	97
2626.004	94
2629.606	88
2633.205	87
2636.801	94
2640.394	103
2643.983	94
2647.57	91
2651.153	79
2654.734	96
2658.311	87
2661.885	95
2665.456	91
2669.025	89
2672.589	83
2676.151	85
2679.71	86
2683.266	80
2686.819	86
2690.368	80
2693.915	76
2697.458	76
2700.999	79
2704.536	72
2708.071	78
2711.602	68
2715.13	64
2718.656	74
2722.178	65
2725.697	66
2729.214	66
2732.727	68
2736.237	67
2739.744	53
2743.249	58
2746.75	62
2750.248	51
2753.743	49
2757.236	45
2760.725	46
2764.211	49
2767.695	40
2771.175	42
2774.652	39
2778.127	42
2781.598	40
2785.067	47
2788.532	43
2791.995	47
2795.455	45
2798.911	49
2802.365	50
2805.816	51
2809.264	45
2812.709	48
2816.151	57
2819.59	57
2823.026	50
2826.46	49
2829.89	49
2833.318	47
2836.742	54
2840.164	48
2843.583	51
2846.999	51
2850.412	47
2853.822	47
2857.229	58
2860.634	51
2864.035	51
2867.434	53
2870.83	59
2874.223	62
2877.613	69
2881	62
2884.385	60
2887.766	63
2891.145	66
2894.521	69
2897.894	64
2901.264	63
2904.631	56
2907.996	68
2911.358	75
2914.717	69
2918.073	74
2921.426	68
2924.777	76
2928.124	81
2931.469	76
2934.811	85
2938.15	89
2941.487	95
2944.821	94
2948.152	98
2951.48	91
2954.805	87
2958.128	87
2961.447	92
2964.765	84
2968.079	80
2971.39	83
2974.699	74
2978.005	82
2981.308	82
2984.609	75
2987.907	81
2991.202	79
2994.494	75
2997.784	78
3001.07	80
3004.355	83
3007.636	89
3010.915	90
3014.191	85
3017.464	92
3020.734	95
3024.002	96
3027.267	94
3030.53	95
3033.789	95
3037.046	96
3040.301	97
3043.552	110
3046.801	113
3050.048	118
3053.291	118
3056.532	123
3059.771	126
3063.006	131
3066.239	135
3069.469	150
3072.697	146
3075.922	152
3079.144	158
3082.364	159
3085.581	159
3088.795	170
3092.007	183
3095.216	172
3098.423	174
3101.627	170
3104.828	187
3108.026	179
3111.222	188
3114.416	187
3117.607	189
3120.795	195
3123.98	209
3127.163	206
3130.344	214
3133.521	222
3136.696	222
3139.869	227
3143.039	221
3146.206	238
3149.371	238
3152.533	241
3155.693	246
3158.85	247
3162.005	246
3165.157	241
3168.306	243
3171.453	242
3174.597	242
3177.739	248
3180.878	253
3184.014	246
3187.149	259
3190.28	253
3193.409	248
3196.536	239
3199.659	256
3202.781	245
3205.9	252
3209.016	255
3212.13	253
3215.241	255
3218.35	246
3221.456	243
3224.56	238
3227.661	233
3230.76	235
3233.856	230
3236.95	229
3240.041	218
3243.13	223
3246.216	212
3249.3	207
3252.382	218
3255.46	209
3258.537	202
3261.611	208
3264.682	201
3267.751	202
3270.818	197
3273.882	192
3276.943	181
3280.002	195
3283.059	188
3286.113	186
3289.165	194
3292.214	184
3295.261	179
3298.306	188
3301.348	183
3304.387	176
3307.425	169
3310.459	170
3313.492	171
3316.521	175
3319.549	180
3322.574	172
3325.597	172
3328.617	173
3331.635	178
3334.65	185
3337.663	172
3340.674	182
3343.682	165
3346.688	180
3349.691	177
3352.692	182
3355.691	176
3358.687	179
3361.681	169
3364.673	174
3367.662	170
3370.649	165
3373.633	160
3376.615	161
3379.595	152
3382.572	141
3385.547	155
3388.52	148
3391.49	148
3394.458	137
3397.424	154
3400.387	142
3403.348	134
3406.307	135
3409.263	131
3412.217	136
3415.168	137
3418.118	133
3421.065	126
3424.009	124
3426.951	125
3429.891	115
3432.829	118
3435.764	115
3438.697	118
3441.628	102
3444.557	104
3447.483	102
3450.407	89
3453.328	95
3456.247	81
3459.164	78
3462.079	74
3464.991	72
3467.902	71
3470.809	69
3473.715	60
3476.618	57
3479.519	52
3482.418	55
3485.315	52
3488.209	38
3491.101	39
3493.99	39
3496.878	34
3499.763	34
3502.646	34
3505.527	31
3508.405	27
3511.281	25
3514.155	19
3517.027	14
3519.897	22
3522.764	15
3525.629	15
3528.492	6
3531.352	2
3534.211	2
3537.067	-5
3539.921	3
3542.773	-8
3545.622	-5
3548.469	-2
3551.315	-4
3554.157	-8
3556.998	-10
3559.837	-16
3562.673	-11
3565.507	-17
3568.339	-9
3571.169	-13
3573.996	-12
3576.822	-22
3579.645	-21
3582.466	-24
3585.285	-22
3588.101	-26
3590.916	-18
3593.728	-27
3596.538	-32
3599.346	-36
3602.152	-31
3604.956	-28
3607.757	-30
3610.556	-26
3613.354	-37
3616.149	-39
3618.942	-32
3621.732	-38
3624.521	-36
3627.307	-38
3630.092	-38
3632.874	-35
3635.654	-43
3638.432	-36
3641.208	-36
3643.982	-28
3646.753	-40
3649.523	-41
3652.29	-41
3655.055	-43
3657.818	-42
3660.579	-44
3663.338	-44
3666.095	-42
3668.849	-49
3671.602	-49
3674.352	-47
3677.101	-42
3679.847	-41
3682.591	-47
3685.333	-43
3688.073	-52
3690.811	-46
3693.547	-51
3696.281	-42
3699.013	-51
3701.742	-49
3704.47	-49
3707.195	-45
3709.919	-46
3712.64	-46
3715.359	-51
3718.076	-55
3720.792	-54
3723.505	-55
3726.216	-49
3728.925	-60
3731.632	-52
3734.336	-55
3737.039	-52
3739.74	-57
3742.439	-61
3745.136	-54
3747.83	-54
3750.523	-57
3753.213	-61
3755.902	-56
3758.589	-58
3761.273	-54
3763.956	-59
3766.636	-50
3769.315	-51
3771.991	-52
3774.665	-57
3777.338	-59
3780.008	-59
3782.677	-57
3785.343	-56
3788.007	-57
3790.67	-58
3793.33	-56
3795.989	-62
3798.645	-59
3801.299	-54
3803.952	-59
3806.602	-57
3809.251	-60
3811.897	-60
3814.542	-62
3817.184	-57
3819.825	-53
3822.463	-54
3825.1	-53
3827.735	-61
3830.367	-54
3832.998	-59
3835.627	-54
3838.253	-55
3840.878	-52
3843.501	-58
3846.122	-63
3848.741	-57
3851.358	-58
3853.973	-53
3856.586	-54
3859.197	-56
3861.806	-56
3864.414	-58
3867.019	-58
3869.622	-49
3872.224	-50
3874.823	-39
3877.421	-33
3880.016	-29
3882.61	-12
3885.202	-11
3887.792	-14
3890.38	-35
3892.966	-48
3895.55	-55
3898.132	-60
3900.713	-59
3903.291	-61
3905.868	-57
3908.442	-58
3911.015	-58
3913.586	-58
3916.155	-57
3918.722	-61
3921.287	-58
3923.85	-50
3926.411	-56
3928.971	-62
3931.528	-60
3934.084	-55
3936.638	-53
3939.19	-58
3941.74	-60
3944.288	-60
3946.834	-60
3949.378	-60
3951.921	-63
3954.462	-62
3957	-57
3959.537	-57
3962.072	-56
3964.606	-58
3967.137	-58
3969.667	-61
3972.194	-54
3974.72	-52
3977.244	-55
3979.766	-62
3982.286	-58
3984.805	-63
3987.321	-56
3989.836	-52
3992.349	-55
3994.86	-59
3997.369	-60
3999.877	-60
4002.382	-64
4004.886	-57
4007.388	-62
4009.888	-54
4012.386	-60
4014.883	-57
4017.377	-59
4019.87	-58
4022.361	-61
4024.85	-59
4027.338	-59
4029.823	-61
4032.307	-62
4034.789	-54
4037.269	-57
4039.747	-58
4042.224	-59
4044.699	-58
4047.172	-61
4049.643	-58
4052.112	-60
4054.58	-58
4057.046	-53
4059.51	-64
4061.972	-65
4064.432	-57
4066.891	-58
4069.348	-57
4071.803	-55
4074.256	-59
4076.708	-57
4079.158	-64
4081.606	-59
4084.052	-60
4086.497	-51
4088.939	-56
4091.38	-61
4093.819	-60
4096.257	-60
4098.693	-61
4101.127	-60
4103.559	-65
4105.989	-4
4108.418	-4
4110.845	-5
4113.27	3
4115.694	-2
4118.115	3
4120.535	-61
4122.954	-52
4125.37	-59
4127.785	-54
4130.198	-59
4132.609	-56
4135.019	-65
4137.427	-62
4139.833	-62
4142.237	-59
