Data from 2018-3-7_conc=2_n=2_RamanShift_04.txt Node
Date: Wed Mar 07 10:43:52 IST 2018
User: aro
Spectrometer: QEPB0276
Trigger mode: 0
Integration Time (sec): 3.000000E1
Scans to average: 1
Electric dark correction enabled: true
Nonlinearity correction enabled: false
Boxcar width: 0
XAxis mode: Raman Shifts
Number of Pixels in Spectrum: 1044
>>>>>Begin Spectral Data<<<<<
160.701	12
166.742	22
172.777	58
178.805	159
184.826	427
190.841	899
196.849	1475
202.85	1921
208.845	2086
214.833	2113
220.815	2084
226.789	2071
232.758	2098
238.719	2134
244.674	2088
250.623	2084
256.565	2070
262.5	2056
268.429	2029
274.351	2032
280.267	2030
286.176	2019
292.079	2007
297.975	2016
303.865	2028
309.748	2044
315.625	2043
321.495	2028
327.359	2046
333.217	2034
339.068	2042
344.912	2043
350.751	2069
356.583	2044
362.408	2060
368.227	2080
374.04	2091
379.847	2094
385.647	2117
391.44	2132
397.228	2113
403.009	2148
408.784	2138
414.553	2155
420.315	2157
426.071	2186
431.821	2159
437.565	2145
443.302	2147
449.033	2147
454.758	2156
460.477	2136
466.189	2107
471.896	2109
477.596	2089
483.29	2069
488.978	2059
494.66	2048
500.335	2007
506.005	1949
511.668	1845
517.325	1757
522.977	1697
528.622	1666
534.261	1626
539.894	1592
545.521	1563
551.141	1557
556.756	1529
562.365	1531
567.968	1499
573.565	1500
579.155	1494
584.74	1484
590.319	1477
595.892	1487
601.459	1459
607.02	1459
612.575	1463
618.124	1439
623.667	1442
629.204	1403
634.735	1389
640.261	1388
645.781	1363
651.294	1386
656.802	1351
662.304	1356
667.8	1343
673.29	1337
678.775	1335
684.254	1351
689.726	1332
695.193	1324
700.655	1324
706.11	1301
711.56	1319
717.004	1292
722.442	1299
727.874	1275
733.301	1289
738.722	1276
744.137	1262
749.547	1262
754.951	1243
760.349	1262
765.741	1252
771.128	1267
776.509	1283
781.885	1302
787.254	1306
792.618	1321
797.977	1306
803.33	1289
808.677	1286
814.019	1286
819.355	1275
824.686	1263
830.011	1264
835.33	1246
840.644	1232
845.952	1240
851.255	1229
856.552	1229
861.844	1209
867.13	1185
872.41	1191
877.686	1199
882.955	1180
888.219	1170
893.478	1147
898.731	1133
903.979	1111
909.221	1122
914.458	1095
919.69	1092
924.916	1109
930.136	1106
935.351	1107
940.561	1120
945.766	1098
950.965	1103
956.158	1088
961.347	1069
966.529	1067
971.707	1045
976.879	1034
982.046	1024
987.208	1033
992.364	1012
997.515	1024
1002.66	1029
1007.801	1033
1012.936	1053
1018.066	1055
1023.19	1064
1028.309	1054
1033.423	1055
1038.532	1053
1043.636	1034
1048.734	1036
1053.827	1015
1058.915	1013
1063.998	995
1069.075	991
1074.147	1005
1079.214	997
1084.276	1005
1089.333	1003
1094.385	1015
1099.431	998
1104.472	1013
1109.509	981
1114.54	978
1119.565	970
1124.586	951
1129.602	947
1134.613	934
1139.618	932
1144.619	929
1149.614	946
1154.604	924
1159.589	924
1164.57	938
1169.545	926
1174.515	933
1179.48	937
1184.44	930
1189.395	938
1194.345	897
1199.29	887
1204.23	903
1209.165	901
1214.095	908
1219.021	911
1223.941	926
1228.856	923
1233.766	929
1238.672	929
1243.572	933
1248.467	917
1253.358	907
1258.244	906
1263.124	854
1268	859
1272.871	851
1277.737	837
1282.599	844
1287.455	841
1292.306	839
1297.153	849
1301.995	840
1306.832	857
1311.664	852
1316.491	849
1321.314	851
1326.132	837
1330.945	825
1335.753	821
1340.556	795
1345.354	781
1350.148	762
1354.937	742
1359.722	734
1364.501	712
1369.276	708
1374.046	686
1378.811	694
1383.572	688
1388.327	681
1393.079	688
1397.825	693
1402.567	694
1407.304	705
1412.036	703
1416.764	695
1421.487	703
1426.205	706
1430.919	704
1435.628	701
1440.333	720
1445.032	708
1449.727	741
1454.418	721
1459.104	715
1463.785	699
1468.462	698
1473.134	680
1477.802	651
1482.465	639
1487.123	619
1491.777	608
1496.426	601
1501.071	600
1505.711	587
1510.347	586
1514.978	573
1519.604	570
1524.226	569
1528.844	567
1533.457	566
1538.065	568
1542.669	565
1547.269	571
1551.864	574
1556.454	597
1561.041	594
1565.622	598
1570.199	609
1574.772	614
1579.34	614
1583.904	621
1588.464	615
1593.019	630
1597.569	623
1602.115	621
1606.657	631
1611.195	618
1615.728	613
1620.256	618
1624.78	606
1629.3	609
1633.816	612
1638.327	608
1642.834	610
1647.336	610
1651.834	615
1656.328	618
1660.817	603
1665.302	593
1669.783	594
1674.259	564
1678.732	547
1683.199	532
1687.663	510
1692.122	472
1696.577	468
1701.028	449
1705.474	428
1709.917	415
1714.355	409
1718.788	404
1723.218	401
1727.643	408
1732.064	412
1736.481	405
1740.893	399
1745.301	397
1749.705	391
1754.105	379
1758.501	358
1762.893	361
1767.28	346
1771.663	341
1776.042	343
1780.417	327
1784.787	331
1789.154	315
1793.516	308
1797.874	305
1802.228	305
1806.578	301
1810.924	297
1815.266	298
1819.603	301
1823.937	309
1828.266	302
1832.591	306
1836.913	307
1841.23	310
1845.543	307
1849.852	313
1854.156	314
1858.457	314
1862.754	314
1867.047	300
1871.335	312
1875.62	296
1879.9	308
1884.177	294
1888.449	296
1892.718	296
1896.982	288
1901.243	268
1905.499	269
1909.752	257
1914	256
1918.245	255
1922.485	256
1926.722	243
1930.954	238
1935.183	237
1939.408	236
1943.628	233
1947.845	241
1952.058	236
1956.267	234
1960.472	237
1964.673	231
1968.87	229
1973.063	236
1977.252	224
1981.438	235
1985.619	229
1989.797	223
1993.971	236
1998.14	230
2002.306	240
2006.469	247
2010.627	251
2014.781	377
2018.932	240
2023.078	242
2027.221	234
2031.36	234
2035.495	228
2039.627	220
2043.754	225
2047.878	215
2051.998	221
2056.114	208
2060.226	206
2064.334	206
2068.439	197
2072.54	195
2076.637	208
2080.73	203
2084.82	201
2088.906	194
2092.988	193
2097.066	192
2101.14	187
2105.211	184
2109.278	180
2113.342	174
2117.401	176
2121.457	182
2125.509	177
2129.558	179
2133.602	180
2137.643	175
2141.681	174
2145.714	182
2149.744	186
2153.77	184
2157.793	183
2161.812	192
2165.827	178
2169.838	175
2173.846	165
2177.851	169
2181.851	164
2185.848	175
2189.841	161
2193.831	157
2197.817	170
2201.799	164
2205.778	163
2209.753	173
2213.725	165
2217.693	160
2221.657	161
2225.618	157
2229.575	157
2233.529	158
2237.479	164
2241.425	157
2245.368	155
2249.307	158
2253.243	149
2257.175	149
2261.104	141
2265.029	145
2268.95	142
2272.868	142
2276.783	136
2280.694	140
2284.601	125
2288.505	136
2292.405	135
2296.302	136
2300.195	130
2304.085	133
2307.971	125
2311.854	122
2315.734	112
2319.609	134
2323.482	113
2327.351	125
2331.216	146
2335.078	154
2338.937	140
2342.792	129
2346.643	132
2350.492	128
2354.336	128
2358.178	120
2362.015	129
2365.85	119
2369.681	127
2373.508	136
2377.333	135
2381.153	128
2384.971	116
2388.785	121
2392.595	128
2396.402	123
2400.206	123
2404.007	129
2407.804	123
2411.597	118
2415.388	121
2419.174	134
2422.958	122
2426.738	127
2430.515	117
2434.289	121
2438.059	114
2441.825	111
2445.589	107
2449.349	106
2453.106	111
2456.859	104
2460.61	100
2464.356	106
2468.1	109
2471.84	106
2475.577	101
2479.311	96
2483.041	93
2486.768	97
2490.492	96
2494.213	89
2497.93	96
2501.644	96
2505.355	86
2509.062	96
2512.766	96
2516.467	85
2520.165	85
2523.859	88
2527.551	86
2531.239	81
2534.923	81
2538.605	77
2542.283	72
2545.958	73
2549.63	73
2553.299	78
2556.964	72
2560.626	73
2564.285	76
2567.941	66
2571.594	67
2575.243	71
2578.89	63
2582.533	63
2586.173	66
2589.809	67
2593.443	72
2597.073	61
2600.701	69
2604.325	60
2607.946	48
2611.564	68
2615.178	54
2618.79	66
2622.398	55
2626.004	60
2629.606	52
2633.205	56
2636.801	54
2640.394	66
2643.983	62
2647.57	56
2651.153	47
2654.734	54
2658.311	53
2661.885	55
2665.456	53
2669.025	57
2672.589	56
2676.151	52
2679.71	46
2683.266	52
2686.819	58
2690.368	49
2693.915	46
2697.458	43
2700.999	46
2704.536	45
2708.071	45
2711.602	43
2715.13	34
2718.656	41
2722.178	38
2725.697	36
2729.214	36
2732.727	38
2736.237	39
2739.744	30
2743.249	28
2746.75	27
2750.248	27
2753.743	30
2757.236	29
2760.725	26
2764.211	22
2767.695	21
2771.175	23
2774.652	18
2778.127	24
2781.598	17
2785.067	21
2788.532	15
2791.995	20
2795.455	21
2798.911	22
2802.365	32
2805.816	24
2809.264	22
2812.709	21
2816.151	27
2819.59	38
2823.026	24
2826.46	26
2829.89	28
2833.318	23
2836.742	32
2840.164	28
2843.583	33
2846.999	34
2850.412	29
2853.822	30
2857.229	28
2860.634	24
2864.035	28
2867.434	32
2870.83	40
2874.223	37
2877.613	39
2881	36
2884.385	42
2887.766	41
2891.145	35
2894.521	41
2897.894	42
2901.264	45
2904.631	37
2907.996	39
2911.358	49
2914.717	47
2918.073	44
2921.426	42
2924.777	45
2928.124	53
2931.469	52
2934.811	57
2938.15	60
2941.487	62
2944.821	62
2948.152	53
2951.48	54
2954.805	57
2958.128	46
2961.447	55
2964.765	45
2968.079	50
2971.39	48
2974.699	48
2978.005	55
2981.308	48
2984.609	50
2987.907	51
2991.202	51
2994.494	47
2997.784	44
3001.07	41
3004.355	47
3007.636	53
3010.915	49
3014.191	55
3017.464	53
3020.734	62
3024.002	57
3027.267	53
3030.53	62
3033.789	58
3037.046	57
3040.301	56
3043.552	68
3046.801	70
3050.048	73
3053.291	72
3056.532	75
3059.771	73
3063.006	82
3066.239	90
3069.469	90
3072.697	89
3075.922	95
3079.144	98
3082.364	97
3085.581	105
3088.795	112
3092.007	109
3095.216	112
3098.423	105
3101.627	107
3104.828	121
3108.026	126
3111.222	116
3114.416	123
3117.607	132
3120.795	134
3123.98	128
3127.163	142
3130.344	141
3133.521	138
3136.696	149
3139.869	149
3143.039	151
3146.206	157
3149.371	164
3152.533	162
3155.693	163
3158.85	159
3162.005	161
3165.157	166
3168.306	162
3171.453	166
3174.597	161
3177.739	162
3180.878	161
3184.014	166
3187.149	169
3190.28	170
3193.409	172
3196.536	164
3199.659	169
3202.781	174
3205.9	158
3209.016	171
3212.13	167
3215.241	160
3218.35	161
3221.456	158
3224.56	154
3227.661	157
3230.76	152
3233.856	149
3236.95	141
3240.041	132
3243.13	148
3246.216	134
3249.3	136
3252.382	135
3255.46	124
3258.537	137
3261.611	132
3264.682	124
3267.751	131
3270.818	111
3273.882	127
3276.943	124
3280.002	126
3283.059	117
3286.113	119
3289.165	114
3292.214	116
3295.261	121
3298.306	118
3301.348	121
3304.387	112
3307.425	112
3310.459	97
3313.492	108
3316.521	110
3319.549	115
3322.574	109
3325.597	102
3328.617	103
3331.635	110
3334.65	121
3337.663	105
3340.674	110
3343.682	113
3346.688	110
3349.691	105
3352.692	103
3355.691	116
3358.687	102
3361.681	106
3364.673	106
3367.662	108
3370.649	105
3373.633	95
3376.615	99
3379.595	87
3382.572	83
3385.547	87
3388.52	86
3391.49	93
3394.458	76
3397.424	85
3400.387	81
3403.348	77
3406.307	74
3409.263	73
3412.217	81
3415.168	82
3418.118	74
3421.065	74
3424.009	72
3426.951	63
3429.891	66
3432.829	64
3435.764	68
3438.697	66
3441.628	51
3444.557	52
3447.483	56
3450.407	42
3453.328	45
3456.247	46
3459.164	40
3462.079	34
3464.991	34
3467.902	32
3470.809	31
3473.715	27
3476.618	26
3479.519	19
3482.418	14
3485.315	19
3488.209	9
3491.101	16
3493.99	14
3496.878	11
3499.763	3
3502.646	-2
3505.527	10
3508.405	8
3511.281	3
3514.155	4
3517.027	-6
3519.897	-3
3522.764	-8
3525.629	-9
3528.492	-9
3531.352	-10
3534.211	-17
3537.067	-16
3539.921	-17
3542.773	-20
3545.622	-13
3548.469	-17
3551.315	-23
3554.157	-28
3556.998	-24
3559.837	-28
3562.673	-22
3565.507	-22
3568.339	-24
3571.169	-30
3573.996	-27
3576.822	-31
3579.645	-34
3582.466	-32
3585.285	-31
3588.101	-40
3590.916	-28
3593.728	-33
3596.538	-40
3599.346	-36
3602.152	-33
3604.956	-32
3607.757	-34
3610.556	-38
3613.354	-44
3616.149	-43
3618.942	-47
3621.732	-46
3624.521	-36
3627.307	-41
3630.092	-41
3632.874	-43
3635.654	-46
3638.432	-35
3641.208	-39
3643.982	-39
3646.753	-48
3649.523	-42
3652.29	-47
3655.055	-42
3657.818	-47
3660.579	-44
3663.338	-40
3666.095	-47
3668.849	-41
3671.602	-46
3674.352	-47
3677.101	-49
3679.847	-48
3682.591	-55
3685.333	-53
3688.073	-54
3690.811	-51
3693.547	-57
3696.281	-49
3699.013	-52
3701.742	-53
3704.47	-49
3707.195	-56
3709.919	-51
3712.64	-50
3715.359	-51
3718.076	-55
3720.792	-53
3723.505	-53
3726.216	-51
3728.925	-58
3731.632	-48
3734.336	-48
3737.039	-52
3739.74	-59
3742.439	-63
3745.136	-55
3747.83	-53
3750.523	-57
3753.213	-53
3755.902	-55
3758.589	-53
3761.273	-57
3763.956	-52
3766.636	-53
3769.315	-50
3771.991	-54
3774.665	-59
3777.338	-54
3780.008	-60
3782.677	-61
3785.343	-54
3788.007	-63
3790.67	-54
3793.33	-50
3795.989	-56
3798.645	-59
3801.299	-57
3803.952	-54
3806.602	-56
3809.251	-58
3811.897	-64
3814.542	-61
3817.184	-56
3819.825	-53
3822.463	-57
3825.1	-52
3827.735	-59
3830.367	-54
3832.998	-57
3835.627	-60
3838.253	-57
3840.878	-53
3843.501	-55
3846.122	-63
3848.741	-58
3851.358	-55
3853.973	-54
3856.586	-54
3859.197	-58
3861.806	-57
3864.414	-63
3867.019	-60
3869.622	-53
3872.224	-49
3874.823	-41
3877.421	-37
3880.016	-23
3882.61	-8
3885.202	-3
3887.792	-9
3890.38	-31
3892.966	-44
3895.55	-54
3898.132	-53
3900.713	-57
3903.291	-60
3905.868	-53
3908.442	-57
3911.015	-55
3913.586	-59
3916.155	-57
3918.722	-57
3921.287	-55
3923.85	-56
3926.411	-64
3928.971	-64
3931.528	-64
3934.084	-55
3936.638	-55
3939.19	-64
3941.74	-56
3944.288	-62
3946.834	-57
3949.378	-58
3951.921	-62
3954.462	-63
3957	-47
3959.537	-51
3962.072	-54
3964.606	-55
3967.137	-52
3969.667	-56
3972.194	-55
3974.72	-55
3977.244	-54
3979.766	-57
3982.286	-61
3984.805	-65
3987.321	-56
3989.836	-59
3992.349	-53
3994.86	-60
3997.369	-60
3999.877	-59
4002.382	-59
4004.886	-58
4007.388	-59
4009.888	-56
4012.386	-62
4014.883	-58
4017.377	-53
4019.87	-54
4022.361	-53
4024.85	-55
4027.338	-56
4029.823	-61
4032.307	-59
4034.789	-59
4037.269	-58
4039.747	-60
4042.224	-60
4044.699	-61
4047.172	-55
4049.643	-57
4052.112	-55
4054.58	-56
4057.046	-54
4059.51	-61
4061.972	-62
4064.432	-60
4066.891	-54
4069.348	-54
4071.803	-52
4074.256	-54
4076.708	-56
4079.158	-61
4081.606	-56
4084.052	-60
4086.497	-50
4088.939	-49
4091.38	-62
4093.819	-63
4096.257	-60
4098.693	-61
4101.127	-56
4103.559	-63
4105.989	12
4108.418	11
4110.845	7
4113.27	9
4115.694	9
4118.115	14
4120.535	-59
4122.954	-53
4125.37	-55
4127.785	-51
4130.198	-57
4132.609	-64
4135.019	-60
4137.427	-66
4139.833	-62
4142.237	-63
