Data from 2018-3-7_conc=3_n=6_RamanShift_04.txt Node
Date: Wed Mar 07 11:32:52 IST 2018
User: aro
Spectrometer: QEPB0276
Trigger mode: 0
Integration Time (sec): 3.000000E1
Scans to average: 1
Electric dark correction enabled: true
Nonlinearity correction enabled: false
Boxcar width: 0
XAxis mode: Raman Shifts
Number of Pixels in Spectrum: 1044
>>>>>Begin Spectral Data<<<<<
160.701	16
166.742	21
172.777	48
178.805	131
184.826	332
190.841	711
196.849	1180
202.85	1528
208.845	1671
214.833	1661
220.815	1681
226.789	1649
232.758	1686
238.719	1674
244.674	1682
250.623	1677
256.565	1655
262.5	1632
268.429	1618
274.351	1627
280.267	1606
286.176	1618
292.079	1624
297.975	1609
303.865	1610
309.748	1606
315.625	1618
321.495	1599
327.359	1615
333.217	1629
339.068	1623
344.912	1613
350.751	1616
356.583	1621
362.408	1627
368.227	1632
374.04	1653
379.847	1652
385.647	1656
391.44	1670
397.228	1656
403.009	1685
408.784	1689
414.553	1701
420.315	1692
426.071	1693
431.821	1694
437.565	1703
443.302	1698
449.033	1702
454.758	1664
460.477	1671
466.189	1665
471.896	1647
477.596	1638
483.29	1622
488.978	1622
494.66	1615
500.335	1581
506.005	1511
511.668	1462
517.325	1408
522.977	1363
528.622	1333
534.261	1310
539.894	1254
545.521	1269
551.141	1247
556.756	1226
562.365	1239
567.968	1224
573.565	1217
579.155	1196
584.74	1197
590.319	1216
595.892	1211
601.459	1199
607.02	1204
612.575	1180
618.124	1174
623.667	1157
629.204	1142
634.735	1127
640.261	1122
645.781	1122
651.294	1115
656.802	1114
662.304	1096
667.8	1097
673.29	1113
678.775	1096
684.254	1096
689.726	1093
695.193	1079
700.655	1081
706.11	1084
711.56	1061
717.004	1062
722.442	1047
727.874	1040
733.301	1045
738.722	1044
744.137	1042
749.547	1030
754.951	1026
760.349	1026
765.741	1036
771.128	1037
776.509	1030
781.885	1067
787.254	1068
792.618	1067
797.977	1059
803.33	1051
808.677	1054
814.019	1031
819.355	1049
824.686	1018
830.011	1023
835.33	1017
840.644	1015
845.952	1003
851.255	1011
856.552	994
861.844	988
867.13	983
872.41	975
877.686	967
882.955	984
888.219	973
893.478	941
898.731	929
903.979	906
909.221	902
914.458	912
919.69	901
924.916	912
930.136	901
935.351	904
940.561	906
945.766	911
950.965	892
956.158	904
961.347	888
966.529	880
971.707	871
976.879	847
982.046	843
987.208	848
992.364	834
997.515	843
1002.66	850
1007.801	858
1012.936	860
1018.066	871
1023.19	863
1028.309	870
1033.423	872
1038.532	857
1043.636	848
1048.734	842
1053.827	841
1058.915	834
1063.998	836
1069.075	822
1074.147	821
1079.214	823
1084.276	832
1089.333	833
1094.385	833
1099.431	819
1104.472	819
1109.509	824
1114.54	813
1119.565	805
1124.586	793
1129.602	785
1134.613	768
1139.618	771
1144.619	760
1149.614	763
1154.604	778
1159.589	769
1164.57	775
1169.545	771
1174.515	790
1179.48	759
1184.44	763
1189.395	753
1194.345	764
1199.29	753
1204.23	746
1209.165	766
1214.095	752
1219.021	766
1223.941	762
1228.856	774
1233.766	768
1238.672	780
1243.572	765
1248.467	753
1253.358	740
1258.244	750
1263.124	732
1268	716
1272.871	702
1277.737	695
1282.599	709
1287.455	692
1292.306	702
1297.153	704
1301.995	696
1306.832	704
1311.664	714
1316.491	709
1321.314	716
1326.132	711
1330.945	700
1335.753	680
1340.556	666
1345.354	655
1350.148	644
1354.937	633
1359.722	613
1364.501	604
1369.276	604
1374.046	589
1378.811	581
1383.572	588
1388.327	582
1393.079	582
1397.825	584
1402.567	598
1407.304	592
1412.036	592
1416.764	583
1421.487	592
1426.205	579
1430.919	593
1435.628	603
1440.333	597
1445.032	606
1449.727	613
1454.418	605
1459.104	610
1463.785	595
1468.462	572
1473.134	571
1477.802	546
1482.465	538
1487.123	515
1491.777	516
1496.426	501
1501.071	498
1505.711	506
1510.347	483
1514.978	483
1519.604	489
1524.226	491
1528.844	488
1533.457	489
1538.065	490
1542.669	485
1547.269	479
1551.864	497
1556.454	509
1561.041	508
1565.622	515
1570.199	515
1574.772	511
1579.34	516
1583.904	517
1588.464	525
1593.019	532
1597.569	532
1602.115	529
1606.657	530
1611.195	518
1615.728	531
1620.256	515
1624.78	517
1629.3	509
1633.816	517
1638.327	525
1642.834	513
1647.336	522
1651.834	507
1656.328	514
1660.817	503
1665.302	505
1669.783	496
1674.259	488
1678.732	468
1683.199	442
1687.663	444
1692.122	406
1696.577	390
1701.028	375
1705.474	359
1709.917	361
1714.355	350
1718.788	350
1723.218	351
1727.643	345
1732.064	360
1736.481	352
1740.893	347
1745.301	326
1749.705	325
1754.105	325
1758.501	305
1762.893	310
1767.28	301
1771.663	298
1776.042	299
1780.417	290
1784.787	289
1789.154	268
1793.516	272
1797.874	263
1802.228	260
1806.578	260
1810.924	261
1815.266	258
1819.603	256
1823.937	262
1828.266	259
1832.591	274
1836.913	261
1841.23	267
1845.543	255
1849.852	272
1854.156	264
1858.457	270
1862.754	269
1867.047	261
1871.335	262
1875.62	268
1879.9	266
1884.177	249
1888.449	256
1892.718	245
1896.982	245
1901.243	231
1905.499	229
1909.752	228
1914	224
1918.245	215
1922.485	222
1926.722	208
1930.954	203
1935.183	211
1939.408	214
1943.628	207
1947.845	212
1952.058	201
1956.267	199
1960.472	204
1964.673	195
1968.87	196
1973.063	199
1977.252	197
1981.438	205
1985.619	199
1989.797	200
1993.971	201
1998.14	207
2002.306	204
2006.469	213
2010.627	194
2014.781	199
2018.932	202
2023.078	206
2027.221	203
2031.36	203
2035.495	194
2039.627	187
2043.754	187
2047.878	185
2051.998	186
2056.114	187
2060.226	179
2064.334	174
2068.439	173
2072.54	172
2076.637	177
2080.73	175
2084.82	176
2088.906	176
2092.988	171
2097.066	159
2101.14	165
2105.211	170
2109.278	162
2113.342	159
2117.401	157
2121.457	166
2125.509	154
2129.558	149
2133.602	150
2137.643	152
2141.681	151
2145.714	154
2149.744	155
2153.77	157
2157.793	161
2161.812	158
2165.827	156
2169.838	150
2173.846	146
2177.851	147
2181.851	153
2185.848	146
2189.841	150
2193.831	142
2197.817	141
2201.799	136
2205.778	137
2209.753	147
2213.725	135
2217.693	142
2221.657	139
2225.618	133
2229.575	132
2233.529	131
2237.479	140
2241.425	133
2245.368	134
2249.307	139
2253.243	123
2257.175	130
2261.104	114
2265.029	127
2268.95	123
2272.868	118
2276.783	124
2280.694	121
2284.601	115
2288.505	122
2292.405	119
2296.302	128
2300.195	115
2304.085	113
2307.971	106
2311.854	112
2315.734	99
2319.609	108
2323.482	106
2327.351	110
2331.216	119
2335.078	127
2338.937	110
2342.792	112
2346.643	112
2350.492	112
2354.336	110
2358.178	98
2362.015	108
2365.85	103
2369.681	106
2373.508	109
2377.333	110
2381.153	106
2384.971	100
2388.785	104
2392.595	99
2396.402	100
2400.206	101
2404.007	106
2407.804	98
2411.597	102
2415.388	101
2419.174	112
2422.958	103
2426.738	102
2430.515	98
2434.289	99
2438.059	105
2441.825	92
2445.589	94
2449.349	97
2453.106	99
2456.859	80
2460.61	82
2464.356	87
2468.1	89
2471.84	83
2475.577	80
2479.311	79
2483.041	85
2486.768	85
2490.492	91
2494.213	83
2497.93	87
2501.644	80
2505.355	74
2509.062	69
2512.766	81
2516.467	76
2520.165	74
2523.859	79
2527.551	75
2531.239	70
2534.923	65
2538.605	66
2542.283	61
2545.958	67
2549.63	62
2553.299	64
2556.964	58
2560.626	65
2564.285	63
2567.941	60
2571.594	56
2575.243	64
2578.89	57
2582.533	58
2586.173	52
2589.809	56
2593.443	58
2597.073	58
2600.701	55
2604.325	45
2607.946	40
2611.564	55
2615.178	55
2618.79	50
2622.398	53
2626.004	49
2629.606	47
2633.205	48
2636.801	46
2640.394	49
2643.983	48
2647.57	42
2651.153	45
2654.734	44
2658.311	45
2661.885	47
2665.456	45
2669.025	49
2672.589	45
2676.151	44
2679.71	32
2683.266	41
2686.819	43
2690.368	38
2693.915	30
2697.458	32
2700.999	41
2704.536	38
2708.071	38
2711.602	34
2715.13	27
2718.656	30
2722.178	28
2725.697	30
2729.214	21
2732.727	37
2736.237	33
2739.744	27
2743.249	30
2746.75	27
2750.248	19
2753.743	22
2757.236	19
2760.725	19
2764.211	19
2767.695	15
2771.175	15
2774.652	14
2778.127	14
2781.598	18
2785.067	20
2788.532	11
2791.995	18
2795.455	17
2798.911	15
2802.365	19
2805.816	15
2809.264	15
2812.709	14
2816.151	21
2819.59	29
2823.026	9
2826.46	20
2829.89	20
2833.318	20
2836.742	26
2840.164	22
2843.583	14
2846.999	29
2850.412	20
2853.822	22
2857.229	25
2860.634	17
2864.035	23
2867.434	16
2870.83	26
2874.223	24
2877.613	27
2881	24
2884.385	34
2887.766	31
2891.145	32
2894.521	33
2897.894	30
2901.264	27
2904.631	32
2907.996	28
2911.358	39
2914.717	30
2918.073	29
2921.426	32
2924.777	40
2928.124	33
2931.469	39
2934.811	44
2938.15	46
2941.487	45
2944.821	44
2948.152	49
2951.48	43
2954.805	43
2958.128	46
2961.447	37
2964.765	33
2968.079	36
2971.39	36
2974.699	33
2978.005	38
2981.308	31
2984.609	31
2987.907	36
2991.202	39
2994.494	35
2997.784	29
3001.07	38
3004.355	43
3007.636	45
3010.915	42
3014.191	39
3017.464	37
3020.734	41
3024.002	40
3027.267	42
3030.53	40
3033.789	44
3037.046	46
3040.301	48
3043.552	49
3046.801	55
3050.048	53
3053.291	51
3056.532	62
3059.771	62
3063.006	64
3066.239	62
3069.469	80
3072.697	71
3075.922	84
3079.144	71
3082.364	76
3085.581	74
3088.795	82
3092.007	84
3095.216	90
3098.423	92
3101.627	90
3104.828	95
3108.026	94
3111.222	100
3114.416	101
3117.607	100
3120.795	106
3123.98	98
3127.163	111
3130.344	106
3133.521	112
3136.696	112
3139.869	119
3143.039	112
3146.206	125
3149.371	121
3152.533	133
3155.693	136
3158.85	130
3162.005	135
3165.157	128
3168.306	120
3171.453	132
3174.597	125
3177.739	129
3180.878	133
3184.014	130
3187.149	129
3190.28	133
3193.409	131
3196.536	129
3199.659	135
3202.781	134
3205.9	127
3209.016	128
3212.13	127
3215.241	132
3218.35	131
3221.456	125
3224.56	115
3227.661	122
3230.76	120
3233.856	116
3236.95	119
3240.041	111
3243.13	112
3246.216	107
3249.3	109
3252.382	108
3255.46	114
3258.537	111
3261.611	96
3264.682	109
3267.751	110
3270.818	87
3273.882	99
3276.943	96
3280.002	95
3283.059	96
3286.113	83
3289.165	92
3292.214	89
3295.261	94
3298.306	90
3301.348	99
3304.387	88
3307.425	88
3310.459	88
3313.492	90
3316.521	87
3319.549	89
3322.574	86
3325.597	81
3328.617	80
3331.635	85
3334.65	89
3337.663	77
3340.674	84
3343.682	84
3346.688	78
3349.691	85
3352.692	85
3355.691	90
3358.687	80
3361.681	79
3364.673	83
3367.662	87
3370.649	80
3373.633	70
3376.615	77
3379.595	69
3382.572	64
3385.547	78
3388.52	66
3391.49	67
3394.458	63
3397.424	69
3400.387	73
3403.348	62
3406.307	55
3409.263	63
3412.217	52
3415.168	59
3418.118	58
3421.065	55
3424.009	52
3426.951	51
3429.891	55
3432.829	54
3435.764	53
3438.697	49
3441.628	40
3444.557	42
3447.483	43
3450.407	36
3453.328	38
3456.247	32
3459.164	25
3462.079	23
3464.991	27
3467.902	20
3470.809	28
3473.715	25
3476.618	14
3479.519	14
3482.418	13
3485.315	9
3488.209	5
3491.101	2
3493.99	8
3496.878	7
3499.763	-1
3502.646	-4
3505.527	6
3508.405	3
3511.281	0
3514.155	-3
3517.027	-10
3519.897	0
3522.764	-1
3525.629	-10
3528.492	-7
3531.352	-18
3534.211	-14
3537.067	-15
3539.921	-14
3542.773	-23
3545.622	-19
3548.469	-19
3551.315	-19
3554.157	-23
3556.998	-22
3559.837	-23
3562.673	-22
3565.507	-23
3568.339	-26
3571.169	-22
3573.996	-20
3576.822	-35
3579.645	-31
3582.466	-29
3585.285	-31
3588.101	-35
3590.916	-32
3593.728	-37
3596.538	-36
3599.346	-34
3602.152	-31
3604.956	-32
3607.757	-27
3610.556	-27
3613.354	-36
3616.149	-35
3618.942	-41
3621.732	-41
3624.521	-36
3627.307	-37
3630.092	-44
3632.874	-37
3635.654	-43
3638.432	-36
3641.208	-39
3643.982	-39
3646.753	-39
3649.523	-35
3652.29	-44
3655.055	-34
3657.818	-44
3660.579	-43
3663.338	-36
3666.095	-41
3668.849	-48
3671.602	-45
3674.352	-46
3677.101	-46
3679.847	-44
3682.591	-46
3685.333	-44
3688.073	-46
3690.811	-46
3693.547	-46
3696.281	-48
3699.013	-42
3701.742	-45
3704.47	-43
3707.195	-43
3709.919	-47
3712.64	-53
3715.359	-51
3718.076	-49
3720.792	-51
3723.505	-48
3726.216	-45
3728.925	-55
3731.632	-48
3734.336	-47
3737.039	-49
3739.74	-52
3742.439	-54
3745.136	-52
3747.83	-42
3750.523	-53
3753.213	-58
3755.902	-51
3758.589	-49
3761.273	-52
3763.956	-52
3766.636	-44
3769.315	-47
3771.991	-50
3774.665	-52
3777.338	-52
3780.008	-48
3782.677	-56
3785.343	-49
3788.007	-52
3790.67	-50
3793.33	-50
3795.989	-50
3798.645	-54
3801.299	-48
3803.952	-48
3806.602	-57
3809.251	-55
3811.897	-57
3814.542	-58
3817.184	-49
3819.825	-48
3822.463	-47
3825.1	-49
3827.735	-51
3830.367	-56
3832.998	-51
3835.627	-47
3838.253	-48
3840.878	-46
3843.501	-47
3846.122	-53
3848.741	-52
3851.358	-52
3853.973	-54
3856.586	-50
3859.197	-52
3861.806	-52
3864.414	-51
3867.019	-52
3869.622	-46
3872.224	-41
3874.823	-29
3877.421	-26
3880.016	-18
3882.61	-1
3885.202	3
3887.792	1
3890.38	-21
3892.966	-41
3895.55	-46
3898.132	-50
3900.713	-52
3903.291	-58
3905.868	-53
3908.442	-53
3911.015	-49
3913.586	-56
3916.155	-51
3918.722	-48
3921.287	-52
3923.85	-44
3926.411	-56
3928.971	-56
3931.528	-51
3934.084	-50
3936.638	-48
3939.19	-59
3941.74	-53
3944.288	-53
3946.834	-54
3949.378	-54
3951.921	-51
3954.462	-52
3957	-45
3959.537	-45
3962.072	-46
3964.606	-49
3967.137	-48
3969.667	-50
3972.194	-54
3974.72	-52
3977.244	-43
3979.766	-53
3982.286	-54
3984.805	-63
3987.321	-54
3989.836	-53
3992.349	-51
3994.86	-52
3997.369	-54
3999.877	-51
4002.382	-50
4004.886	-46
4007.388	-50
4009.888	-52
4012.386	-49
4014.883	-50
4017.377	-48
4019.87	-52
4022.361	-59
4024.85	-55
4027.338	-53
4029.823	-57
4032.307	-54
4034.789	-53
4037.269	-48
4039.747	-53
4042.224	-55
4044.699	-53
4047.172	-56
4049.643	-56
4052.112	-53
4054.58	-50
4057.046	-50
4059.51	-54
4061.972	-52
4064.432	-55
4066.891	-53
4069.348	-52
4071.803	-48
4074.256	-51
4076.708	-58
4079.158	-51
4081.606	-49
4084.052	-52
4086.497	-46
4088.939	-49
4091.38	-52
4093.819	-51
4096.257	-54
4098.693	-56
4101.127	-49
4103.559	-60
4105.989	19
4108.418	14
4110.845	4
4113.27	3
4115.694	17
4118.115	12
4120.535	-53
4122.954	-50
4125.37	-53
4127.785	-50
4130.198	-48
4132.609	-53
4135.019	-53
4137.427	-55
4139.833	-53
4142.237	-55
