Data from 2018-3-7_conc=6_n=10_RamanShift_02.txt Node
Date: Wed Mar 07 13:26:21 IST 2018
User: aro
Spectrometer: QEPB0276
Trigger mode: 0
Integration Time (sec): 3.000000E1
Scans to average: 1
Electric dark correction enabled: true
Nonlinearity correction enabled: false
Boxcar width: 0
XAxis mode: Raman Shifts
Number of Pixels in Spectrum: 1044
>>>>>Begin Spectral Data<<<<<
160.701	8
166.742	24
172.777	50
178.805	151
184.826	394
190.841	848
196.849	1419
202.85	1860
208.845	2038
214.833	2046
220.815	2011
226.789	2004
232.758	2013
238.719	2003
244.674	1985
250.623	1968
256.565	1967
262.5	1934
268.429	1905
274.351	1888
280.267	1873
286.176	1857
292.079	1867
297.975	1860
303.865	1861
309.748	1836
315.625	1830
321.495	1838
327.359	1850
333.217	1839
339.068	1842
344.912	1843
350.751	1831
356.583	1817
362.408	1851
368.227	1845
374.04	1851
379.847	1860
385.647	1836
391.44	1856
397.228	1861
403.009	1879
408.784	1909
414.553	1899
420.315	1898
426.071	1906
431.821	1896
437.565	1898
443.302	1879
449.033	1871
454.758	1899
460.477	1860
466.189	1835
471.896	1841
477.596	1836
483.29	1840
488.978	1815
494.66	1816
500.335	1785
506.005	1734
511.668	1677
517.325	1651
522.977	1599
528.622	1552
534.261	1533
539.894	1516
545.521	1531
551.141	1492
556.756	1484
562.365	1500
567.968	1477
573.565	1470
579.155	1452
584.74	1467
590.319	1435
595.892	1447
601.459	1428
607.02	1425
612.575	1422
618.124	1406
623.667	1402
629.204	1379
634.735	1372
640.261	1340
645.781	1349
651.294	1360
656.802	1344
662.304	1340
667.8	1344
673.29	1325
678.775	1335
684.254	1331
689.726	1325
695.193	1323
700.655	1324
706.11	1289
711.56	1284
717.004	1288
722.442	1286
727.874	1270
733.301	1294
738.722	1261
744.137	1261
749.547	1262
754.951	1247
760.349	1264
765.741	1268
771.128	1265
776.509	1271
781.885	1275
787.254	1292
792.618	1291
797.977	1279
803.33	1272
808.677	1265
814.019	1259
819.355	1239
824.686	1235
830.011	1207
835.33	1219
840.644	1222
845.952	1227
851.255	1221
856.552	1229
861.844	1204
867.13	1189
872.41	1177
877.686	1190
882.955	1170
888.219	1174
893.478	1148
898.731	1135
903.979	1125
909.221	1126
914.458	1114
919.69	1124
924.916	1106
930.136	1114
935.351	1115
940.561	1114
945.766	1128
950.965	1105
956.158	1094
961.347	1098
966.529	1056
971.707	1050
976.879	1041
982.046	1034
987.208	1039
992.364	1024
997.515	1041
1002.66	1033
1007.801	1036
1012.936	1048
1018.066	1062
1023.19	1057
1028.309	1052
1033.423	1059
1038.532	1047
1043.636	1046
1048.734	1026
1053.827	1020
1058.915	1010
1063.998	1006
1069.075	987
1074.147	992
1079.214	998
1084.276	1013
1089.333	1015
1094.385	1003
1099.431	1012
1104.472	999
1109.509	993
1114.54	990
1119.565	977
1124.586	959
1129.602	945
1134.613	940
1139.618	935
1144.619	928
1149.614	943
1154.604	931
1159.589	951
1164.57	941
1169.545	951
1174.515	938
1179.48	934
1184.44	932
1189.395	938
1194.345	911
1199.29	913
1204.23	911
1209.165	923
1214.095	917
1219.021	920
1223.941	932
1228.856	935
1233.766	932
1238.672	934
1243.572	950
1248.467	929
1253.358	917
1258.244	895
1263.124	879
1268	878
1272.871	851
1277.737	859
1282.599	862
1287.455	847
1292.306	860
1297.153	854
1301.995	868
1306.832	869
1311.664	872
1316.491	875
1321.314	877
1326.132	876
1330.945	864
1335.753	859
1340.556	816
1345.354	800
1350.148	786
1354.937	769
1359.722	748
1364.501	749
1369.276	742
1374.046	714
1378.811	704
1383.572	707
1388.327	695
1393.079	704
1397.825	704
1402.567	712
1407.304	708
1412.036	713
1416.764	718
1421.487	730
1426.205	712
1430.919	714
1435.628	720
1440.333	731
1445.032	738
1449.727	756
1454.418	747
1459.104	740
1463.785	725
1468.462	709
1473.134	708
1477.802	693
1482.465	671
1487.123	650
1491.777	633
1496.426	626
1501.071	616
1505.711	621
1510.347	607
1514.978	611
1519.604	606
1524.226	599
1528.844	593
1533.457	588
1538.065	586
1542.669	580
1547.269	580
1551.864	593
1556.454	605
1561.041	593
1565.622	625
1570.199	613
1574.772	615
1579.34	635
1583.904	651
1588.464	652
1593.019	647
1597.569	650
1602.115	652
1606.657	646
1611.195	645
1615.728	637
1620.256	638
1624.78	651
1629.3	649
1633.816	651
1638.327	648
1642.834	645
1647.336	647
1651.834	654
1656.328	658
1660.817	640
1665.302	623
1669.783	612
1674.259	608
1678.732	587
1683.199	562
1687.663	552
1692.122	517
1696.577	497
1701.028	481
1705.474	442
1709.917	429
1714.355	422
1718.788	426
1723.218	425
1727.643	435
1732.064	439
1736.481	424
1740.893	418
1745.301	425
1749.705	407
1754.105	400
1758.501	384
1762.893	381
1767.28	371
1771.663	372
1776.042	369
1780.417	353
1784.787	343
1789.154	344
1793.516	326
1797.874	318
1802.228	319
1806.578	308
1810.924	320
1815.266	296
1819.603	305
1823.937	316
1828.266	320
1832.591	315
1836.913	324
1841.23	324
1845.543	326
1849.852	324
1854.156	326
1858.457	329
1862.754	332
1867.047	324
1871.335	328
1875.62	336
1879.9	321
1884.177	318
1888.449	320
1892.718	323
1896.982	309
1901.243	295
1905.499	291
1909.752	280
1914	292
1918.245	279
1922.485	265
1926.722	266
1930.954	267
1935.183	272
1939.408	264
1943.628	253
1947.845	263
1952.058	249
1956.267	245
1960.472	247
1964.673	243
1968.87	245
1973.063	241
1977.252	246
1981.438	247
1985.619	241
1989.797	238
1993.971	240
1998.14	250
2002.306	248
2006.469	265
2010.627	251
2014.781	257
2018.932	255
2023.078	239
2027.221	246
2031.36	249
2035.495	242
2039.627	235
2043.754	236
2047.878	235
2051.998	246
2056.114	227
2060.226	232
2064.334	227
2068.439	224
2072.54	219
2076.637	231
2080.73	219
2084.82	221
2088.906	211
2092.988	215
2097.066	212
2101.14	204
2105.211	206
2109.278	195
2113.342	187
2117.401	195
2121.457	194
2125.509	189
2129.558	192
2133.602	187
2137.643	195
2141.681	192
2145.714	194
2149.744	196
2153.77	204
2157.793	202
2161.812	205
2165.827	200
2169.838	186
2173.846	190
2177.851	189
2181.851	193
2185.848	184
2189.841	181
2193.831	179
2197.817	175
2201.799	173
2205.778	177
2209.753	181
2213.725	172
2217.693	175
2221.657	182
2225.618	171
2229.575	168
2233.529	171
2237.479	178
2241.425	179
2245.368	168
2249.307	165
2253.243	165
2257.175	165
2261.104	160
2265.029	155
2268.95	160
2272.868	154
2276.783	150
2280.694	142
2284.601	137
2288.505	142
2292.405	154
2296.302	145
2300.195	137
2304.085	142
2307.971	140
2311.854	138
2315.734	130
2319.609	145
2323.482	136
2327.351	136
2331.216	139
2335.078	154
2338.937	144
2342.792	139
2346.643	145
2350.492	145
2354.336	141
2358.178	131
2362.015	140
2365.85	134
2369.681	134
2373.508	131
2377.333	146
2381.153	132
2384.971	130
2388.785	134
2392.595	140
2396.402	131
2400.206	135
2404.007	128
2407.804	140
2411.597	134
2415.388	134
2419.174	141
2422.958	141
2426.738	128
2430.515	132
2434.289	128
2438.059	127
2441.825	128
2445.589	121
2449.349	120
2453.106	120
2456.859	118
2460.61	119
2464.356	121
2468.1	111
2471.84	116
2475.577	119
2479.311	113
2483.041	117
2486.768	106
2490.492	114
2494.213	108
2497.93	109
2501.644	113
2505.355	102
2509.062	100
2512.766	102
2516.467	102
2520.165	102
2523.859	103
2527.551	95
2531.239	97
2534.923	86
2538.605	85
2542.283	87
2545.958	84
2549.63	88
2553.299	85
2556.964	83
2560.626	91
2564.285	89
2567.941	76
2571.594	83
2575.243	88
2578.89	73
2582.533	78
2586.173	75
2589.809	82
2593.443	87
2597.073	76
2600.701	75
2604.325	63
2607.946	56
2611.564	71
2615.178	67
2618.79	67
2622.398	71
2626.004	66
2629.606	67
2633.205	68
2636.801	70
2640.394	71
2643.983	64
2647.57	65
2651.153	59
2654.734	67
2658.311	65
2661.885	70
2665.456	66
2669.025	67
2672.589	61
2676.151	55
2679.71	55
2683.266	51
2686.819	58
2690.368	61
2693.915	57
2697.458	45
2700.999	59
2704.536	53
2708.071	57
2711.602	41
2715.13	39
2718.656	52
2722.178	46
2725.697	45
2729.214	42
2732.727	51
2736.237	48
2739.744	37
2743.249	42
2746.75	35
2750.248	36
2753.743	35
2757.236	33
2760.725	30
2764.211	35
2767.695	29
2771.175	25
2774.652	28
2778.127	29
2781.598	31
2785.067	32
2788.532	22
2791.995	38
2795.455	30
2798.911	29
2802.365	37
2805.816	34
2809.264	35
2812.709	32
2816.151	38
2819.59	45
2823.026	30
2826.46	33
2829.89	30
2833.318	32
2836.742	34
2840.164	33
2843.583	30
2846.999	39
2850.412	33
2853.822	29
2857.229	37
2860.634	32
2864.035	31
2867.434	37
2870.83	45
2874.223	42
2877.613	39
2881	43
2884.385	48
2887.766	53
2891.145	43
2894.521	47
2897.894	47
2901.264	46
2904.631	45
2907.996	53
2911.358	51
2914.717	47
2918.073	47
2921.426	45
2924.777	49
2928.124	51
2931.469	55
2934.811	59
2938.15	63
2941.487	68
2944.821	57
2948.152	69
2951.48	94
2954.805	79
2958.128	60
2961.447	59
2964.765	58
2968.079	58
2971.39	59
2974.699	57
2978.005	64
2981.308	53
2984.609	57
2987.907	59
2991.202	60
2994.494	63
2997.784	55
3001.07	63
3004.355	54
3007.636	64
3010.915	57
3014.191	59
3017.464	61
3020.734	68
3024.002	71
3027.267	60
3030.53	68
3033.789	74
3037.046	66
3040.301	75
3043.552	73
3046.801	78
3050.048	80
3053.291	87
3056.532	86
3059.771	91
3063.006	99
3066.239	103
3069.469	107
3072.697	109
3075.922	115
3079.144	117
3082.364	120
3085.581	118
3088.795	131
3092.007	131
3095.216	131
3098.423	127
3101.627	124
3104.828	138
3108.026	141
3111.222	145
3114.416	152
3117.607	149
3120.795	149
3123.98	161
3127.163	167
3130.344	160
3133.521	164
3136.696	175
3139.869	175
3143.039	179
3146.206	188
3149.371	182
3152.533	187
3155.693	195
3158.85	190
3162.005	195
3165.157	185
3168.306	182
3171.453	188
3174.597	196
3177.739	193
3180.878	191
3184.014	192
3187.149	198
3190.28	193
3193.409	192
3196.536	189
3199.659	196
3202.781	204
3205.9	202
3209.016	192
3212.13	197
3215.241	186
3218.35	196
3221.456	196
3224.56	188
3227.661	186
3230.76	176
3233.856	182
3236.95	174
3240.041	165
3243.13	174
3246.216	163
3249.3	153
3252.382	172
3255.46	166
3258.537	161
3261.611	152
3264.682	152
3267.751	152
3270.818	147
3273.882	154
3276.943	149
3280.002	144
3283.059	148
3286.113	135
3289.165	145
3292.214	144
3295.261	146
3298.306	142
3301.348	140
3304.387	137
3307.425	132
3310.459	132
3313.492	130
3316.521	126
3319.549	134
3322.574	135
3325.597	129
3328.617	124
3331.635	129
3334.65	142
3337.663	123
3340.674	132
3343.682	131
3346.688	130
3349.691	133
3352.692	135
3355.691	143
3358.687	134
3361.681	129
3364.673	131
3367.662	134
3370.649	126
3373.633	119
3376.615	121
3379.595	118
3382.572	115
3385.547	118
3388.52	112
3391.49	105
3394.458	103
3397.424	114
3400.387	109
3403.348	95
3406.307	97
3409.263	104
3412.217	102
3415.168	110
3418.118	101
3421.065	97
3424.009	91
3426.951	91
3429.891	91
3432.829	87
3435.764	90
3438.697	83
3441.628	70
3444.557	79
3447.483	73
3450.407	62
3453.328	69
3456.247	61
3459.164	62
3462.079	49
3464.991	53
3467.902	50
3470.809	45
3473.715	48
3476.618	40
3479.519	37
3482.418	39
3485.315	38
3488.209	29
3491.101	31
3493.99	29
3496.878	22
3499.763	23
3502.646	22
3505.527	21
3508.405	14
3511.281	20
3514.155	12
3517.027	6
3519.897	7
3522.764	7
3525.629	0
3528.492	-2
3531.352	-3
3534.211	-7
3537.067	-12
3539.921	-5
3542.773	-14
3545.622	-9
3548.469	-11
3551.315	-4
3554.157	-11
3556.998	-10
3559.837	-15
3562.673	-14
3565.507	-17
3568.339	-11
3571.169	-25
3573.996	-16
3576.822	-35
3579.645	-28
3582.466	-27
3585.285	-25
3588.101	-30
3590.916	-25
3593.728	-30
3596.538	-29
3599.346	-32
3602.152	-29
3604.956	-28
3607.757	-29
3610.556	-31
3613.354	-35
3616.149	-39
3618.942	-29
3621.732	-37
3624.521	-36
3627.307	-33
3630.092	-39
3632.874	-34
3635.654	-34
3638.432	-35
3641.208	-36
3643.982	-38
3646.753	-43
3649.523	-40
3652.29	-45
3655.055	-39
3657.818	-43
3660.579	-45
3663.338	-36
3666.095	-45
3668.849	-41
3671.602	-40
3674.352	-36
3677.101	-43
3679.847	-45
3682.591	-46
3685.333	-45
3688.073	-52
3690.811	-47
3693.547	-44
3696.281	-45
3699.013	-47
3701.742	-52
3704.47	-44
3707.195	-43
3709.919	-48
3712.64	-50
3715.359	-47
3718.076	-55
3720.792	-45
3723.505	-49
3726.216	-48
3728.925	-48
3731.632	-49
3734.336	-48
3737.039	-44
3739.74	-51
3742.439	-57
3745.136	-51
3747.83	-47
3750.523	-54
3753.213	-50
3755.902	-55
3758.589	-51
3761.273	-48
3763.956	-56
3766.636	-48
3769.315	-48
3771.991	-56
3774.665	-54
3777.338	-52
3780.008	-49
3782.677	-51
3785.343	-49
3788.007	-57
3790.67	-54
3793.33	-49
3795.989	-50
3798.645	-54
3801.299	-47
3803.952	-48
3806.602	-52
3809.251	-58
3811.897	-59
3814.542	-60
3817.184	-52
3819.825	-49
3822.463	-55
3825.1	-51
3827.735	-59
3830.367	-55
3832.998	-54
3835.627	-52
3838.253	-56
3840.878	-50
3843.501	-51
3846.122	-54
3848.741	-51
3851.358	-55
3853.973	-47
3856.586	-48
3859.197	-57
3861.806	-54
3864.414	-56
3867.019	-55
3869.622	-46
3872.224	-42
3874.823	-37
3877.421	-24
3880.016	-14
3882.61	4
3885.202	1
3887.792	-2
3890.38	-23
3892.966	-39
3895.55	-45
3898.132	-45
3900.713	-53
3903.291	-51
3905.868	-51
3908.442	-48
3911.015	-55
3913.586	-52
3916.155	-54
3918.722	-58
3921.287	-54
3923.85	-51
3926.411	-55
3928.971	-62
3931.528	-55
3934.084	-52
3936.638	-52
3939.19	-63
3941.74	-58
3944.288	-45
3946.834	-53
3949.378	-55
3951.921	-52
3954.462	-55
3957	-49
3959.537	-44
3962.072	-45
3964.606	-53
3967.137	-55
3969.667	-59
3972.194	-51
3974.72	-51
3977.244	-52
3979.766	-52
3982.286	-58
3984.805	-65
3987.321	-55
3989.836	-53
3992.349	-57
3994.86	-56
3997.369	-55
3999.877	-55
4002.382	-55
4004.886	-53
4007.388	-54
4009.888	-49
4012.386	-53
4014.883	-50
4017.377	-47
4019.87	-50
4022.361	-52
4024.85	-54
4027.338	-55
4029.823	-51
4032.307	-54
4034.789	-49
4037.269	-55
4039.747	-54
4042.224	-53
4044.699	-57
4047.172	-59
4049.643	-60
4052.112	-52
4054.58	-54
4057.046	-50
4059.51	-59
4061.972	-62
4064.432	-48
4066.891	-52
4069.348	-51
4071.803	-48
4074.256	-49
4076.708	-50
4079.158	-51
4081.606	-49
4084.052	-54
4086.497	-51
4088.939	-51
4091.38	-61
4093.819	-56
4096.257	-56
4098.693	-55
4101.127	-51
4103.559	-59
4105.989	13
4108.418	3
4110.845	5
4113.27	10
4115.694	12
4118.115	9
4120.535	-58
4122.954	-51
4125.37	-55
4127.785	-55
4130.198	-57
4132.609	-59
4135.019	-54
4137.427	-63
4139.833	-55
4142.237	-61
