Data from 2018-3-7_conc=5_n=4_RamanShift_03.txt Node
Date: Wed Mar 07 12:35:22 IST 2018
User: aro
Spectrometer: QEPB0276
Trigger mode: 0
Integration Time (sec): 3.000000E1
Scans to average: 1
Electric dark correction enabled: true
Nonlinearity correction enabled: false
Boxcar width: 0
XAxis mode: Raman Shifts
Number of Pixels in Spectrum: 1044
>>>>>Begin Spectral Data<<<<<
160.701	4
166.742	15
172.777	56
178.805	177
184.826	459
190.841	970
196.849	1624
202.85	2153
208.845	2364
214.833	2371
220.815	2362
226.789	2330
232.758	2340
238.719	2349
244.674	2327
250.623	2305
256.565	2266
262.5	2218
268.429	2210
274.351	2190
280.267	2184
286.176	2172
292.079	2187
297.975	2150
303.865	2146
309.748	2151
315.625	2145
321.495	2148
327.359	2117
333.217	2141
339.068	2137
344.912	2131
350.751	2151
356.583	2137
362.408	2134
368.227	2146
374.04	2140
379.847	2160
385.647	2167
391.44	2196
397.228	2185
403.009	2188
408.784	2191
414.553	2234
420.315	2228
426.071	2193
431.821	2222
437.565	2213
443.302	2210
449.033	2204
454.758	2183
460.477	2184
466.189	2169
471.896	2146
477.596	2129
483.29	2146
488.978	2122
494.66	2138
500.335	2099
506.005	2049
511.668	1996
517.325	1938
522.977	1885
528.622	1849
534.261	1815
539.894	1805
545.521	1803
551.141	1792
556.756	1780
562.365	1758
567.968	1765
573.565	1757
579.155	1741
584.74	1729
590.319	1706
595.892	1717
601.459	1709
607.02	1701
612.575	1695
618.124	1680
623.667	1650
629.204	1651
634.735	1634
640.261	1626
645.781	1614
651.294	1611
656.802	1602
662.304	1591
667.8	1600
673.29	1587
678.775	1582
684.254	1583
689.726	1554
695.193	1584
700.655	1555
706.11	1552
711.56	1554
717.004	1537
722.442	1526
727.874	1519
733.301	1522
738.722	1501
744.137	1512
749.547	1519
754.951	1502
760.349	1498
765.741	1504
771.128	1504
776.509	1504
781.885	1538
787.254	1544
792.618	1518
797.977	1521
803.33	1519
808.677	1489
814.019	1477
819.355	1475
824.686	1466
830.011	1458
835.33	1447
840.644	1449
845.952	1447
851.255	1456
856.552	1456
861.844	1436
867.13	1423
872.41	1412
877.686	1426
882.955	1411
888.219	1385
893.478	1361
898.731	1348
903.979	1345
909.221	1345
914.458	1341
919.69	1319
924.916	1323
930.136	1333
935.351	1341
940.561	1327
945.766	1333
950.965	1321
956.158	1308
961.347	1309
966.529	1284
971.707	1261
976.879	1266
982.046	1242
987.208	1230
992.364	1233
997.515	1213
1002.66	1247
1007.801	1263
1012.936	1258
1018.066	1284
1023.19	1272
1028.309	1264
1033.423	1268
1038.532	1255
1043.636	1251
1048.734	1228
1053.827	1232
1058.915	1222
1063.998	1199
1069.075	1189
1074.147	1209
1079.214	1195
1084.276	1207
1089.333	1206
1094.385	1216
1099.431	1201
1104.472	1197
1109.509	1207
1114.54	1177
1119.565	1167
1124.586	1151
1129.602	1146
1134.613	1151
1139.618	1130
1144.619	1131
1149.614	1128
1154.604	1128
1159.589	1138
1164.57	1134
1169.545	1134
1174.515	1132
1179.48	1129
1184.44	1113
1189.395	1116
1194.345	1103
1199.29	1085
1204.23	1104
1209.165	1096
1214.095	1108
1219.021	1116
1223.941	1122
1228.856	1104
1233.766	1137
1238.672	1132
1243.572	1126
1248.467	1122
1253.358	1098
1258.244	1094
1263.124	1075
1268	1053
1272.871	1041
1277.737	1020
1282.599	1027
1287.455	1025
1292.306	1033
1297.153	1025
1301.995	1041
1306.832	1055
1311.664	1048
1316.491	1048
1321.314	1053
1326.132	1041
1330.945	1024
1335.753	1008
1340.556	996
1345.354	974
1350.148	944
1354.937	919
1359.722	906
1364.501	895
1369.276	871
1374.046	850
1378.811	850
1383.572	832
1388.327	841
1393.079	830
1397.825	851
1402.567	844
1407.304	856
1412.036	861
1416.764	859
1421.487	870
1426.205	854
1430.919	872
1435.628	887
1440.333	893
1445.032	887
1449.727	916
1454.418	900
1459.104	890
1463.785	877
1468.462	852
1473.134	861
1477.802	812
1482.465	787
1487.123	790
1491.777	766
1496.426	760
1501.071	741
1505.711	734
1510.347	726
1514.978	715
1519.604	717
1524.226	715
1528.844	717
1533.457	712
1538.065	712
1542.669	686
1547.269	701
1551.864	699
1556.454	720
1561.041	733
1565.622	743
1570.199	744
1574.772	743
1579.34	762
1583.904	770
1588.464	793
1593.019	779
1597.569	772
1602.115	779
1606.657	778
1611.195	771
1615.728	774
1620.256	770
1624.78	783
1629.3	777
1633.816	790
1638.327	775
1642.834	781
1647.336	777
1651.834	769
1656.328	780
1660.817	779
1665.302	751
1669.783	745
1674.259	714
1678.732	708
1683.199	688
1687.663	648
1692.122	621
1696.577	585
1701.028	566
1705.474	518
1709.917	512
1714.355	503
1718.788	494
1723.218	517
1727.643	509
1732.064	511
1736.481	512
1740.893	501
1745.301	494
1749.705	486
1754.105	467
1758.501	451
1762.893	448
1767.28	441
1771.663	435
1776.042	432
1780.417	418
1784.787	408
1789.154	403
1793.516	379
1797.874	382
1802.228	376
1806.578	366
1810.924	360
1815.266	358
1819.603	357
1823.937	376
1828.266	372
1832.591	386
1836.913	382
1841.23	387
1845.543	386
1849.852	394
1854.156	391
1858.457	383
1862.754	395
1867.047	394
1871.335	388
1875.62	383
1879.9	387
1884.177	379
1888.449	370
1892.718	379
1896.982	362
1901.243	343
1905.499	346
1909.752	352
1914	334
1918.245	328
1922.485	316
1926.722	312
1930.954	303
1935.183	305
1939.408	304
1943.628	294
1947.845	299
1952.058	291
1956.267	281
1960.472	295
1964.673	273
1968.87	283
1973.063	291
1977.252	283
1981.438	279
1985.619	276
1989.797	285
1993.971	291
1998.14	292
2002.306	302
2006.469	312
2010.627	284
2014.781	309
2018.932	297
2023.078	299
2027.221	299
2031.36	303
2035.495	278
2039.627	285
2043.754	287
2047.878	277
2051.998	276
2056.114	271
2060.226	264
2064.334	272
2068.439	268
2072.54	258
2076.637	264
2080.73	259
2084.82	248
2088.906	252
2092.988	250
2097.066	229
2101.14	233
2105.211	232
2109.278	231
2113.342	222
2117.401	227
2121.457	226
2125.509	227
2129.558	229
2133.602	226
2137.643	230
2141.681	228
2145.714	230
2149.744	233
2153.77	235
2157.793	229
2161.812	235
2165.827	233
2169.838	228
2173.846	222
2177.851	219
2181.851	226
2185.848	228
2189.841	214
2193.831	217
2197.817	215
2201.799	222
2205.778	209
2209.753	217
2213.725	216
2217.693	220
2221.657	216
2225.618	200
2229.575	208
2233.529	201
2237.479	212
2241.425	205
2245.368	206
2249.307	204
2253.243	192
2257.175	196
2261.104	188
2265.029	187
2268.95	193
2272.868	182
2276.783	179
2280.694	169
2284.601	177
2288.505	181
2292.405	184
2296.302	179
2300.195	179
2304.085	165
2307.971	172
2311.854	166
2315.734	167
2319.609	170
2323.482	168
2327.351	168
2331.216	166
2335.078	177
2338.937	180
2342.792	169
2346.643	166
2350.492	169
2354.336	160
2358.178	157
2362.015	160
2365.85	160
2369.681	172
2373.508	166
2377.333	175
2381.153	163
2384.971	169
2388.785	174
2392.595	172
2396.402	170
2400.206	172
2404.007	163
2407.804	163
2411.597	160
2415.388	160
2419.174	167
2422.958	158
2426.738	157
2430.515	155
2434.289	167
2438.059	149
2441.825	147
2445.589	157
2449.349	151
2453.106	155
2456.859	151
2460.61	146
2464.356	152
2468.1	149
2471.84	147
2475.577	138
2479.311	136
2483.041	137
2486.768	139
2490.492	137
2494.213	139
2497.93	132
2501.644	135
2505.355	127
2509.062	128
2512.766	125
2516.467	117
2520.165	121
2523.859	128
2527.551	126
2531.239	115
2534.923	112
2538.605	113
2542.283	114
2545.958	115
2549.63	114
2553.299	109
2556.964	99
2560.626	107
2564.285	109
2567.941	98
2571.594	95
2575.243	99
2578.89	99
2582.533	88
2586.173	97
2589.809	95
2593.443	104
2597.073	91
2600.701	103
2604.325	84
2607.946	82
2611.564	89
2615.178	95
2618.79	91
2622.398	96
2626.004	86
2629.606	85
2633.205	89
2636.801	85
2640.394	90
2643.983	83
2647.57	82
2651.153	72
2654.734	77
2658.311	78
2661.885	75
2665.456	81
2669.025	79
2672.589	76
2676.151	73
2679.71	70
2683.266	76
2686.819	82
2690.368	80
2693.915	72
2697.458	64
2700.999	73
2704.536	74
2708.071	71
2711.602	56
2715.13	56
2718.656	61
2722.178	57
2725.697	49
2729.214	61
2732.727	55
2736.237	56
2739.744	54
2743.249	41
2746.75	48
2750.248	45
2753.743	46
2757.236	37
2760.725	42
2764.211	41
2767.695	38
2771.175	37
2774.652	37
2778.127	44
2781.598	39
2785.067	40
2788.532	40
2791.995	43
2795.455	42
2798.911	39
2802.365	44
2805.816	37
2809.264	43
2812.709	40
2816.151	46
2819.59	59
2823.026	47
2826.46	40
2829.89	42
2833.318	41
2836.742	45
2840.164	46
2843.583	39
2846.999	52
2850.412	47
2853.822	47
2857.229	52
2860.634	43
2864.035	46
2867.434	44
2870.83	55
2874.223	51
2877.613	56
2881	55
2884.385	65
2887.766	65
2891.145	55
2894.521	67
2897.894	65
2901.264	60
2904.631	59
2907.996	63
2911.358	69
2914.717	68
2918.073	64
2921.426	58
2924.777	73
2928.124	64
2931.469	64
2934.811	77
2938.15	84
2941.487	85
2944.821	80
2948.152	85
2951.48	78
2954.805	84
2958.128	76
2961.447	74
2964.765	70
2968.079	73
2971.39	71
2974.699	71
2978.005	70
2981.308	71
2984.609	70
2987.907	73
2991.202	73
2994.494	72
2997.784	64
3001.07	69
3004.355	72
3007.636	76
3010.915	75
3014.191	73
3017.464	74
3020.734	83
3024.002	83
3027.267	82
3030.53	85
3033.789	92
3037.046	87
3040.301	90
3043.552	100
3046.801	97
3050.048	103
3053.291	107
3056.532	105
3059.771	106
3063.006	116
3066.239	116
3069.469	134
3072.697	133
3075.922	135
3079.144	140
3082.364	138
3085.581	146
3088.795	150
3092.007	160
3095.216	156
3098.423	153
3101.627	156
3104.828	175
3108.026	162
3111.222	176
3114.416	172
3117.607	174
3120.795	185
3123.98	187
3127.163	201
3130.344	192
3133.521	189
3136.696	192
3139.869	217
3143.039	212
3146.206	210
3149.371	212
3152.533	230
3155.693	231
3158.85	225
3162.005	230
3165.157	222
3168.306	230
3171.453	226
3174.597	228
3177.739	236
3180.878	229
3184.014	229
3187.149	222
3190.28	229
3193.409	232
3196.536	222
3199.659	237
3202.781	235
3205.9	219
3209.016	230
3212.13	223
3215.241	232
3218.35	221
3221.456	226
3224.56	221
3227.661	211
3230.76	212
3233.856	220
3236.95	212
3240.041	201
3243.13	203
3246.216	194
3249.3	190
3252.382	196
3255.46	195
3258.537	187
3261.611	181
3264.682	176
3267.751	183
3270.818	176
3273.882	169
3276.943	173
3280.002	173
3283.059	171
3286.113	171
3289.165	167
3292.214	160
3295.261	167
3298.306	172
3301.348	162
3304.387	160
3307.425	166
3310.459	157
3313.492	160
3316.521	157
3319.549	163
3322.574	155
3325.597	156
3328.617	157
3331.635	153
3334.65	171
3337.663	151
3340.674	165
3343.682	161
3346.688	157
3349.691	155
3352.692	151
3355.691	161
3358.687	156
3361.681	149
3364.673	161
3367.662	149
3370.649	153
3373.633	146
3376.615	146
3379.595	144
3382.572	141
3385.547	137
3388.52	132
3391.49	128
3394.458	127
3397.424	137
3400.387	133
3403.348	126
3406.307	117
3409.263	121
3412.217	119
3415.168	119
3418.118	113
3421.065	103
3424.009	110
3426.951	103
3429.891	102
3432.829	109
3435.764	111
3438.697	96
3441.628	84
3444.557	85
3447.483	84
3450.407	80
3453.328	81
3456.247	80
3459.164	66
3462.079	60
3464.991	66
3467.902	58
3470.809	56
3473.715	51
3476.618	45
3479.519	42
3482.418	42
3485.315	45
3488.209	34
3491.101	29
3493.99	36
3496.878	27
3499.763	29
3502.646	22
3505.527	21
3508.405	24
3511.281	22
3514.155	12
3517.027	11
3519.897	17
3522.764	9
3525.629	9
3528.492	2
3531.352	2
3534.211	-5
3537.067	-7
3539.921	-5
3542.773	-8
3545.622	-8
3548.469	-12
3551.315	-11
3554.157	-14
3556.998	-15
3559.837	-19
3562.673	-14
3565.507	-18
3568.339	-16
3571.169	-19
3573.996	-18
3576.822	-24
3579.645	-28
3582.466	-24
3585.285	-23
3588.101	-29
3590.916	-28
3593.728	-27
3596.538	-31
3599.346	-38
3602.152	-28
3604.956	-30
3607.757	-30
3610.556	-31
3613.354	-41
3616.149	-38
3618.942	-37
3621.732	-34
3624.521	-36
3627.307	-38
3630.092	-37
3632.874	-42
3635.654	-37
3638.432	-38
3641.208	-41
3643.982	-39
3646.753	-46
3649.523	-41
3652.29	-42
3655.055	-41
3657.818	-47
3660.579	-51
3663.338	-47
3666.095	-48
3668.849	-47
3671.602	-52
3674.352	-45
3677.101	-46
3679.847	-45
3682.591	-51
3685.333	-46
3688.073	-51
3690.811	-53
3693.547	-52
3696.281	-44
3699.013	-49
3701.742	-57
3704.47	-44
3707.195	-50
3709.919	-53
3712.64	-52
3715.359	-55
3718.076	-58
3720.792	-52
3723.505	-53
3726.216	-56
3728.925	-63
3731.632	-54
3734.336	-55
3737.039	-55
3739.74	-54
3742.439	-64
3745.136	-57
3747.83	-56
3750.523	-56
3753.213	-61
3755.902	-56
3758.589	-57
3761.273	-55
3763.956	-59
3766.636	-57
3769.315	-55
3771.991	-60
3774.665	-63
3777.338	-59
3780.008	-60
3782.677	-62
3785.343	-60
3788.007	-60
3790.67	-59
3793.33	-61
3795.989	-59
3798.645	-61
3801.299	-58
3803.952	-59
3806.602	-62
3809.251	-62
3811.897	-65
3814.542	-63
3817.184	-59
3819.825	-54
3822.463	-59
3825.1	-57
3827.735	-65
3830.367	-60
3832.998	-67
3835.627	-60
3838.253	-60
3840.878	-52
3843.501	-56
3846.122	-62
3848.741	-63
3851.358	-59
3853.973	-56
3856.586	-54
3859.197	-58
3861.806	-58
3864.414	-59
3867.019	-62
3869.622	-53
3872.224	-51
3874.823	-40
3877.421	-32
3880.016	-26
3882.61	-9
3885.202	0
3887.792	-11
3890.38	-33
3892.966	-47
3895.55	-56
3898.132	-55
3900.713	-60
3903.291	-60
3905.868	-58
3908.442	-54
3911.015	-59
3913.586	-62
3916.155	-63
3918.722	-64
3921.287	-65
3923.85	-54
3926.411	-61
3928.971	-70
3931.528	-66
3934.084	-55
3936.638	-63
3939.19	-71
3941.74	-60
3944.288	-61
3946.834	-60
3949.378	-63
3951.921	-62
3954.462	-63
3957	-54
3959.537	-51
3962.072	-54
3964.606	-59
3967.137	-54
3969.667	-61
3972.194	-62
3974.72	-56
3977.244	-58
3979.766	-58
3982.286	-60
3984.805	-67
3987.321	-61
3989.836	-58
3992.349	-60
3994.86	-58
3997.369	-57
3999.877	-61
4002.382	-58
4004.886	-54
4007.388	-62
4009.888	-59
4012.386	-58
4014.883	-59
4017.377	-54
4019.87	-54
4022.361	-63
4024.85	-55
4027.338	-61
4029.823	-63
4032.307	-65
4034.789	-57
4037.269	-60
4039.747	-60
4042.224	-62
4044.699	-61
4047.172	-63
4049.643	-64
4052.112	-63
4054.58	-57
4057.046	-55
4059.51	-63
4061.972	-64
4064.432	-56
4066.891	-52
4069.348	-55
4071.803	-57
4074.256	-58
4076.708	-59
4079.158	-64
4081.606	-61
4084.052	-67
4086.497	-56
4088.939	-60
4091.38	-66
4093.819	-69
4096.257	-60
4098.693	-62
4101.127	-58
4103.559	-66
4105.989	2
4108.418	4
4110.845	-4
4113.27	3
4115.694	7
4118.115	5
4120.535	-57
4122.954	-57
4125.37	-60
4127.785	-57
4130.198	-56
4132.609	-60
4135.019	-60
4137.427	-64
4139.833	-61
4142.237	-67
