Data from 2018-3-7_conc=6_n=8_RamanShift_03.txt Node
Date: Wed Mar 07 13:20:51 IST 2018
User: aro
Spectrometer: QEPB0276
Trigger mode: 0
Integration Time (sec): 3.000000E1
Scans to average: 1
Electric dark correction enabled: true
Nonlinearity correction enabled: false
Boxcar width: 0
XAxis mode: Raman Shifts
Number of Pixels in Spectrum: 1044
>>>>>Begin Spectral Data<<<<<
160.701	8
166.742	19
172.777	48
178.805	148
184.826	385
190.841	845
196.849	1406
202.85	1823
208.845	1984
214.833	2002
220.815	1984
226.789	1979
232.758	1984
238.719	1963
244.674	1967
250.623	1946
256.565	1911
262.5	1913
268.429	1879
274.351	1862
280.267	1853
286.176	1844
292.079	1838
297.975	1833
303.865	1826
309.748	1826
315.625	1826
321.495	1828
327.359	1823
333.217	1825
339.068	1813
344.912	1817
350.751	1829
356.583	1822
362.408	1837
368.227	1831
374.04	1829
379.847	1851
385.647	1852
391.44	1862
397.228	1863
403.009	1871
408.784	1874
414.553	1882
420.315	1882
426.071	1903
431.821	1886
437.565	1894
443.302	1870
449.033	1879
454.758	1871
460.477	1872
466.189	1839
471.896	1824
477.596	1830
483.29	1801
488.978	1819
494.66	1802
500.335	1779
506.005	1729
511.668	1685
517.325	1637
522.977	1594
528.622	1552
534.261	1544
539.894	1512
545.521	1522
551.141	1492
556.756	1482
562.365	1471
567.968	1477
573.565	1468
579.155	1448
584.74	1435
590.319	1428
595.892	1433
601.459	1421
607.02	1434
612.575	1405
618.124	1404
623.667	1387
629.204	1377
634.735	1367
640.261	1347
645.781	1348
651.294	1353
656.802	1339
662.304	1335
667.8	1334
673.29	1338
678.775	1336
684.254	1322
689.726	1315
695.193	1313
700.655	1300
706.11	1280
711.56	1277
717.004	1260
722.442	1266
727.874	1262
733.301	1270
738.722	1266
744.137	1250
749.547	1259
754.951	1251
760.349	1266
765.741	1259
771.128	1243
776.509	1276
781.885	1278
787.254	1271
792.618	1275
797.977	1276
803.33	1251
808.677	1238
814.019	1245
819.355	1231
824.686	1240
830.011	1220
835.33	1221
840.644	1214
845.952	1208
851.255	1198
856.552	1203
861.844	1180
867.13	1195
872.41	1180
877.686	1186
882.955	1187
888.219	1140
893.478	1157
898.731	1125
903.979	1109
909.221	1108
914.458	1101
919.69	1107
924.916	1116
930.136	1108
935.351	1130
940.561	1099
945.766	1106
950.965	1111
956.158	1099
961.347	1077
966.529	1071
971.707	1042
976.879	1057
982.046	1043
987.208	1036
992.364	1027
997.515	1035
1002.66	1040
1007.801	1052
1012.936	1058
1018.066	1067
1023.19	1052
1028.309	1046
1033.423	1063
1038.532	1045
1043.636	1027
1048.734	1022
1053.827	1009
1058.915	1010
1063.998	984
1069.075	985
1074.147	995
1079.214	999
1084.276	986
1089.333	1007
1094.385	1006
1099.431	1003
1104.472	999
1109.509	980
1114.54	981
1119.565	968
1124.586	954
1129.602	952
1134.613	929
1139.618	934
1144.619	929
1149.614	936
1154.604	929
1159.589	944
1164.57	941
1169.545	945
1174.515	943
1179.48	934
1184.44	941
1189.395	935
1194.345	924
1199.29	894
1204.23	930
1209.165	907
1214.095	906
1219.021	921
1223.941	928
1228.856	937
1233.766	928
1238.672	939
1243.572	931
1248.467	930
1253.358	908
1258.244	908
1263.124	875
1268	872
1272.871	853
1277.737	855
1282.599	859
1287.455	852
1292.306	843
1297.153	846
1301.995	875
1306.832	865
1311.664	864
1316.491	886
1321.314	864
1326.132	879
1330.945	845
1335.753	857
1340.556	820
1345.354	793
1350.148	790
1354.937	779
1359.722	754
1364.501	738
1369.276	716
1374.046	712
1378.811	700
1383.572	692
1388.327	682
1393.079	687
1397.825	698
1402.567	716
1407.304	707
1412.036	711
1416.764	709
1421.487	714
1426.205	719
1430.919	719
1435.628	718
1440.333	723
1445.032	728
1449.727	735
1454.418	748
1459.104	730
1463.785	714
1468.462	707
1473.134	702
1477.802	680
1482.465	662
1487.123	644
1491.777	630
1496.426	618
1501.071	634
1505.711	618
1510.347	597
1514.978	592
1519.604	596
1524.226	595
1528.844	589
1533.457	577
1538.065	599
1542.669	583
1547.269	583
1551.864	589
1556.454	593
1561.041	608
1565.622	614
1570.199	612
1574.772	619
1579.34	620
1583.904	634
1588.464	651
1593.019	649
1597.569	640
1602.115	648
1606.657	648
1611.195	639
1615.728	648
1620.256	635
1624.78	647
1629.3	638
1633.816	646
1638.327	645
1642.834	654
1647.336	642
1651.834	628
1656.328	638
1660.817	634
1665.302	629
1669.783	619
1674.259	596
1678.732	593
1683.199	564
1687.663	548
1692.122	510
1696.577	495
1701.028	472
1705.474	446
1709.917	431
1714.355	423
1718.788	426
1723.218	428
1727.643	425
1732.064	424
1736.481	430
1740.893	412
1745.301	414
1749.705	395
1754.105	387
1758.501	378
1762.893	387
1767.28	366
1771.663	367
1776.042	360
1780.417	360
1784.787	349
1789.154	339
1793.516	321
1797.874	321
1802.228	320
1806.578	306
1810.924	303
1815.266	299
1819.603	312
1823.937	312
1828.266	304
1832.591	316
1836.913	325
1841.23	321
1845.543	327
1849.852	331
1854.156	332
1858.457	332
1862.754	333
1867.047	331
1871.335	326
1875.62	327
1879.9	327
1884.177	311
1888.449	312
1892.718	318
1896.982	303
1901.243	288
1905.499	292
1909.752	282
1914	283
1918.245	271
1922.485	262
1926.722	263
1930.954	253
1935.183	262
1939.408	263
1943.628	256
1947.845	256
1952.058	252
1956.267	249
1960.472	247
1964.673	223
1968.87	236
1973.063	241
1977.252	244
1981.438	242
1985.619	235
1989.797	249
1993.971	241
1998.14	245
2002.306	247
2006.469	252
2010.627	260
2014.781	251
2018.932	254
2023.078	249
2027.221	251
2031.36	248
2035.495	246
2039.627	224
2043.754	233
2047.878	227
2051.998	235
2056.114	230
2060.226	227
2064.334	225
2068.439	221
2072.54	225
2076.637	220
2080.73	221
2084.82	215
2088.906	210
2092.988	205
2097.066	209
2101.14	204
2105.211	204
2109.278	199
2113.342	195
2117.401	196
2121.457	195
2125.509	194
2129.558	186
2133.602	191
2137.643	190
2141.681	183
2145.714	192
2149.744	191
2153.77	193
2157.793	200
2161.812	197
2165.827	188
2169.838	192
2173.846	183
2177.851	181
2181.851	184
2185.848	181
2189.841	180
2193.831	180
2197.817	180
2201.799	173
2205.778	184
2209.753	184
2213.725	179
2217.693	185
2221.657	176
2225.618	170
2229.575	171
2233.529	178
2237.479	175
2241.425	169
2245.368	169
2249.307	170
2253.243	161
2257.175	159
2261.104	157
2265.029	154
2268.95	164
2272.868	155
2276.783	158
2280.694	148
2284.601	144
2288.505	155
2292.405	148
2296.302	156
2300.195	143
2304.085	139
2307.971	140
2311.854	145
2315.734	135
2319.609	143
2323.482	133
2327.351	137
2331.216	146
2335.078	149
2338.937	144
2342.792	139
2346.643	140
2350.492	136
2354.336	140
2358.178	138
2362.015	132
2365.85	130
2369.681	143
2373.508	139
2377.333	144
2381.153	136
2384.971	133
2388.785	135
2392.595	145
2396.402	146
2400.206	142
2404.007	138
2407.804	137
2411.597	134
2415.388	133
2419.174	141
2422.958	125
2426.738	132
2430.515	134
2434.289	133
2438.059	122
2441.825	127
2445.589	123
2449.349	126
2453.106	130
2456.859	125
2460.61	113
2464.356	123
2468.1	120
2471.84	120
2475.577	113
2479.311	117
2483.041	118
2486.768	116
2490.492	117
2494.213	111
2497.93	116
2501.644	118
2505.355	102
2509.062	104
2512.766	103
2516.467	93
2520.165	92
2523.859	100
2527.551	91
2531.239	99
2534.923	94
2538.605	94
2542.283	79
2545.958	93
2549.63	91
2553.299	88
2556.964	76
2560.626	95
2564.285	89
2567.941	81
2571.594	86
2575.243	77
2578.89	71
2582.533	79
2586.173	76
2589.809	79
2593.443	77
2597.073	77
2600.701	70
2604.325	68
2607.946	64
2611.564	74
2615.178	75
2618.79	71
2622.398	74
2626.004	64
2629.606	66
2633.205	69
2636.801	66
2640.394	69
2643.983	67
2647.57	65
2651.153	64
2654.734	60
2658.311	61
2661.885	65
2665.456	62
2669.025	63
2672.589	53
2676.151	54
2679.71	54
2683.266	59
2686.819	65
2690.368	64
2693.915	60
2697.458	58
2700.999	59
2704.536	63
2708.071	56
2711.602	43
2715.13	50
2718.656	47
2722.178	42
2725.697	45
2729.214	45
2732.727	47
2736.237	49
2739.744	33
2743.249	44
2746.75	42
2750.248	35
2753.743	30
2757.236	33
2760.725	30
2764.211	33
2767.695	28
2771.175	29
2774.652	31
2778.127	31
2781.598	30
2785.067	35
2788.532	30
2791.995	28
2795.455	30
2798.911	37
2802.365	38
2805.816	32
2809.264	30
2812.709	25
2816.151	29
2819.59	43
2823.026	31
2826.46	37
2829.89	35
2833.318	29
2836.742	39
2840.164	32
2843.583	31
2846.999	37
2850.412	36
2853.822	36
2857.229	38
2860.634	35
2864.035	37
2867.434	39
2870.83	42
2874.223	40
2877.613	46
2881	44
2884.385	49
2887.766	44
2891.145	41
2894.521	42
2897.894	42
2901.264	50
2904.631	38
2907.996	45
2911.358	50
2914.717	47
2918.073	41
2921.426	46
2924.777	53
2928.124	56
2931.469	61
2934.811	61
2938.15	63
2941.487	72
2944.821	59
2948.152	62
2951.48	64
2954.805	70
2958.128	61
2961.447	67
2964.765	58
2968.079	56
2971.39	55
2974.699	51
2978.005	68
2981.308	56
2984.609	52
2987.907	55
2991.202	55
2994.494	49
2997.784	48
3001.07	56
3004.355	60
3007.636	62
3010.915	66
3014.191	56
3017.464	64
3020.734	60
3024.002	71
3027.267	68
3030.53	72
3033.789	69
3037.046	68
3040.301	69
3043.552	79
3046.801	80
3050.048	74
3053.291	86
3056.532	84
3059.771	84
3063.006	95
3066.239	89
3069.469	107
3072.697	96
3075.922	115
3079.144	102
3082.364	114
3085.581	118
3088.795	123
3092.007	126
3095.216	127
3098.423	125
3101.627	126
3104.828	137
3108.026	140
3111.222	144
3114.416	148
3117.607	145
3120.795	145
3123.98	145
3127.163	157
3130.344	158
3133.521	156
3136.696	157
3139.869	166
3143.039	167
3146.206	174
3149.371	169
3152.533	183
3155.693	188
3158.85	177
3162.005	181
3165.157	181
3168.306	182
3171.453	182
3174.597	190
3177.739	194
3180.878	187
3184.014	185
3187.149	184
3190.28	179
3193.409	189
3196.536	189
3199.659	194
3202.781	193
3205.9	187
3209.016	189
3212.13	184
3215.241	192
3218.35	182
3221.456	182
3224.56	176
3227.661	177
3230.76	174
3233.856	169
3236.95	167
3240.041	160
3243.13	176
3246.216	157
3249.3	157
3252.382	155
3255.46	164
3258.537	157
3261.611	149
3264.682	156
3267.751	155
3270.818	131
3273.882	141
3276.943	145
3280.002	145
3283.059	136
3286.113	137
3289.165	138
3292.214	137
3295.261	131
3298.306	136
3301.348	134
3304.387	131
3307.425	129
3310.459	123
3313.492	125
3316.521	128
3319.549	141
3322.574	123
3325.597	128
3328.617	119
3331.635	133
3334.65	132
3337.663	123
3340.674	128
3343.682	132
3346.688	127
3349.691	133
3352.692	126
3355.691	130
3358.687	126
3361.681	123
3364.673	133
3367.662	132
3370.649	117
3373.633	120
3376.615	115
3379.595	114
3382.572	119
3385.547	114
3388.52	112
3391.49	103
3394.458	99
3397.424	105
3400.387	103
3403.348	92
3406.307	89
3409.263	95
3412.217	97
3415.168	96
3418.118	87
3421.065	85
3424.009	89
3426.951	82
3429.891	80
3432.829	73
3435.764	86
3438.697	79
3441.628	69
3444.557	78
3447.483	72
3450.407	63
3453.328	60
3456.247	61
3459.164	55
3462.079	52
3464.991	48
3467.902	47
3470.809	47
3473.715	43
3476.618	43
3479.519	36
3482.418	34
3485.315	33
3488.209	23
3491.101	25
3493.99	25
3496.878	19
3499.763	7
3502.646	15
3505.527	18
3508.405	17
3511.281	16
3514.155	3
3517.027	0
3519.897	10
3522.764	7
3525.629	3
3528.492	-5
3531.352	-4
3534.211	-9
3537.067	-6
3539.921	-8
3542.773	-13
3545.622	-11
3548.469	-8
3551.315	-12
3554.157	-19
3556.998	-17
3559.837	-23
3562.673	-16
3565.507	-18
3568.339	-9
3571.169	-18
3573.996	-16
3576.822	-28
3579.645	-25
3582.466	-25
3585.285	-28
3588.101	-28
3590.916	-28
3593.728	-27
3596.538	-30
3599.346	-29
3602.152	-33
3604.956	-29
3607.757	-25
3610.556	-34
3613.354	-35
3616.149	-41
3618.942	-35
3621.732	-38
3624.521	-31
3627.307	-33
3630.092	-37
3632.874	-35
3635.654	-34
3638.432	-35
3641.208	-32
3643.982	-32
3646.753	-39
3649.523	-40
3652.29	-40
3655.055	-33
3657.818	-43
3660.579	-42
3663.338	-40
3666.095	-40
3668.849	-45
3671.602	-47
3674.352	-41
3677.101	-45
3679.847	-45
3682.591	-48
3685.333	-46
3688.073	-48
3690.811	-44
3693.547	-50
3696.281	-37
3699.013	-45
3701.742	-48
3704.47	-43
3707.195	-43
3709.919	-44
3712.64	-43
3715.359	-47
3718.076	-50
3720.792	-51
3723.505	-46
3726.216	-49
3728.925	-51
3731.632	-49
3734.336	-52
3737.039	-49
3739.74	-54
3742.439	-53
3745.136	-53
3747.83	-46
3750.523	-50
3753.213	-56
3755.902	-49
3758.589	-50
3761.273	-50
3763.956	-51
3766.636	-50
3769.315	-47
3771.991	-51
3774.665	-55
3777.338	-57
3780.008	-51
3782.677	-59
3785.343	-54
3788.007	-52
3790.67	-53
3793.33	-50
3795.989	-56
3798.645	-56
3801.299	-48
3803.952	-52
3806.602	-53
3809.251	-52
3811.897	-54
3814.542	-55
3817.184	-57
3819.825	-46
3822.463	-49
3825.1	-51
3827.735	-53
3830.367	-57
3832.998	-55
3835.627	-49
3838.253	-49
3840.878	-53
3843.501	-50
3846.122	-56
3848.741	-53
3851.358	-55
3853.973	-43
3856.586	-52
3859.197	-52
3861.806	-51
3864.414	-44
3867.019	-52
3869.622	-50
3872.224	-40
3874.823	-31
3877.421	-29
3880.016	-13
3882.61	-4
3885.202	-2
3887.792	-9
3890.38	-25
3892.966	-41
3895.55	-50
3898.132	-51
3900.713	-54
3903.291	-58
3905.868	-51
3908.442	-55
3911.015	-51
3913.586	-59
3916.155	-54
3918.722	-51
3921.287	-50
3923.85	-46
3926.411	-55
3928.971	-60
3931.528	-52
3934.084	-51
3936.638	-54
3939.19	-57
3941.74	-54
3944.288	-56
3946.834	-56
3949.378	-55
3951.921	-59
3954.462	-58
3957	-49
3959.537	-48
3962.072	-50
3964.606	-48
3967.137	-52
3969.667	-50
3972.194	-50
3974.72	-51
3977.244	-52
3979.766	-58
3982.286	-52
3984.805	-59
3987.321	-53
3989.836	-51
3992.349	-53
3994.86	-56
3997.369	-53
3999.877	-56
4002.382	-54
4004.886	-53
4007.388	-56
4009.888	-54
4012.386	-56
4014.883	-50
4017.377	-49
4019.87	-52
4022.361	-54
4024.85	-52
4027.338	-57
4029.823	-51
4032.307	-53
4034.789	-52
4037.269	-51
4039.747	-47
4042.224	-53
4044.699	-49
4047.172	-56
4049.643	-57
4052.112	-52
4054.58	-53
4057.046	-48
4059.51	-57
4061.972	-59
4064.432	-53
4066.891	-52
4069.348	-53
4071.803	-49
4074.256	-53
4076.708	-51
4079.158	-55
4081.606	-53
4084.052	-52
4086.497	-48
4088.939	-47
4091.38	-54
4093.819	-55
4096.257	-54
4098.693	-58
4101.127	-49
4103.559	-60
4105.989	-1
4108.418	2
4110.845	3
4113.27	-1
4115.694	7
4118.115	9
4120.535	-57
4122.954	-52
4125.37	-48
4127.785	-47
4130.198	-50
4132.609	-53
4135.019	-55
4137.427	-56
4139.833	-55
4142.237	-57
