Data from 2018-3-7_conc=5_n=8_RamanShift_05.txt Node
Date: Wed Mar 07 12:48:52 IST 2018
User: aro
Spectrometer: QEPB0276
Trigger mode: 0
Integration Time (sec): 3.000000E1
Scans to average: 1
Electric dark correction enabled: true
Nonlinearity correction enabled: false
Boxcar width: 0
XAxis mode: Raman Shifts
Number of Pixels in Spectrum: 1044
>>>>>Begin Spectral Data<<<<<
160.701	2
166.742	19
172.777	65
178.805	218
184.826	573
190.841	1242
196.849	2062
202.85	2727
208.845	2972
214.833	2981
220.815	2944
226.789	2957
232.758	2934
238.719	2920
244.674	2916
250.623	2874
256.565	2828
262.5	2785
268.429	2760
274.351	2719
280.267	2709
286.176	2675
292.079	2682
297.975	2671
303.865	2646
309.748	2659
315.625	2634
321.495	2631
327.359	2636
333.217	2610
339.068	2614
344.912	2621
350.751	2620
356.583	2624
362.408	2619
368.227	2638
374.04	2632
379.847	2635
385.647	2639
391.44	2631
397.228	2646
403.009	2670
408.784	2685
414.553	2701
420.315	2716
426.071	2684
431.821	2689
437.565	2691
443.302	2703
449.033	2690
454.758	2692
460.477	2667
466.189	2655
471.896	2640
477.596	2619
483.29	2592
488.978	2591
494.66	2608
500.335	2566
506.005	2515
511.668	2448
517.325	2417
522.977	2351
528.622	2324
534.261	2299
539.894	2248
545.521	2269
551.141	2264
556.756	2256
562.365	2233
567.968	2221
573.565	2211
579.155	2196
584.74	2198
590.319	2175
595.892	2170
601.459	2158
607.02	2166
612.575	2144
618.124	2114
623.667	2098
629.204	2088
634.735	2062
640.261	2068
645.781	2053
651.294	2024
656.802	2047
662.304	2053
667.8	2034
673.29	2039
678.775	2010
684.254	2015
689.726	2005
695.193	1990
700.655	1986
706.11	1966
711.56	1938
717.004	1954
722.442	1935
727.874	1920
733.301	1953
738.722	1921
744.137	1916
749.547	1909
754.951	1899
760.349	1929
765.741	1926
771.128	1887
776.509	1916
781.885	1928
787.254	1941
792.618	1930
797.977	1924
803.33	1906
808.677	1885
814.019	1892
819.355	1881
824.686	1859
830.011	1855
835.33	1844
840.644	1855
845.952	1853
851.255	1843
856.552	1846
861.844	1836
867.13	1826
872.41	1814
877.686	1805
882.955	1789
888.219	1775
893.478	1764
898.731	1729
903.979	1702
909.221	1696
914.458	1698
919.69	1704
924.916	1696
930.136	1723
935.351	1717
940.561	1709
945.766	1704
950.965	1692
956.158	1701
961.347	1654
966.529	1649
971.707	1602
976.879	1602
982.046	1590
987.208	1579
992.364	1584
997.515	1570
1002.66	1595
1007.801	1607
1012.936	1614
1018.066	1620
1023.19	1603
1028.309	1599
1033.423	1611
1038.532	1611
1043.636	1579
1048.734	1587
1053.827	1549
1058.915	1532
1063.998	1507
1069.075	1521
1074.147	1522
1079.214	1527
1084.276	1541
1089.333	1555
1094.385	1554
1099.431	1539
1104.472	1532
1109.509	1531
1114.54	1504
1119.565	1492
1124.586	1472
1129.602	1450
1134.613	1440
1139.618	1429
1144.619	1429
1149.614	1431
1154.604	1427
1159.589	1445
1164.57	1445
1169.545	1444
1174.515	1449
1179.48	1438
1184.44	1428
1189.395	1412
1194.345	1396
1199.29	1387
1204.23	1388
1209.165	1399
1214.095	1404
1219.021	1411
1223.941	1441
1228.856	1417
1233.766	1436
1238.672	1440
1243.572	1437
1248.467	1401
1253.358	1397
1258.244	1386
1263.124	1359
1268	1339
1272.871	1332
1277.737	1314
1282.599	1319
1287.455	1313
1292.306	1318
1297.153	1305
1301.995	1334
1306.832	1326
1311.664	1329
1316.491	1343
1321.314	1333
1326.132	1328
1330.945	1309
1335.753	1282
1340.556	1255
1345.354	1234
1350.148	1203
1354.937	1195
1359.722	1166
1364.501	1134
1369.276	1088
1374.046	1062
1378.811	1057
1383.572	1056
1388.327	1065
1393.079	1073
1397.825	1095
1402.567	1092
1407.304	1101
1412.036	1091
1416.764	1097
1421.487	1103
1426.205	1102
1430.919	1109
1435.628	1109
1440.333	1144
1445.032	1119
1449.727	1143
1454.418	1124
1459.104	1130
1463.785	1099
1468.462	1088
1473.134	1077
1477.802	1040
1482.465	1004
1487.123	987
1491.777	975
1496.426	956
1501.071	951
1505.711	936
1510.347	931
1514.978	929
1519.604	902
1524.226	899
1528.844	894
1533.457	904
1538.065	885
1542.669	865
1547.269	889
1551.864	906
1556.454	912
1561.041	930
1565.622	938
1570.199	943
1574.772	945
1579.34	964
1583.904	996
1588.464	1008
1593.019	1001
1597.569	1009
1602.115	1012
1606.657	989
1611.195	991
1615.728	991
1620.256	982
1624.78	992
1629.3	973
1633.816	976
1638.327	997
1642.834	997
1647.336	991
1651.834	995
1656.328	992
1660.817	987
1665.302	967
1669.783	938
1674.259	913
1678.732	893
1683.199	854
1687.663	834
1692.122	782
1696.577	747
1701.028	706
1705.474	657
1709.917	629
1714.355	634
1718.788	624
1723.218	638
1727.643	647
1732.064	649
1736.481	637
1740.893	621
1745.301	616
1749.705	611
1754.105	588
1758.501	577
1762.893	579
1767.28	554
1771.663	554
1776.042	534
1780.417	528
1784.787	526
1789.154	514
1793.516	500
1797.874	485
1802.228	486
1806.578	471
1810.924	454
1815.266	468
1819.603	469
1823.937	463
1828.266	478
1832.591	478
1836.913	475
1841.23	472
1845.543	484
1849.852	488
1854.156	502
1858.457	500
1862.754	501
1867.047	496
1871.335	501
1875.62	490
1879.9	494
1884.177	478
1888.449	471
1892.718	473
1896.982	461
1901.243	451
1905.499	436
1909.752	428
1914	421
1918.245	406
1922.485	404
1926.722	396
1930.954	393
1935.183	394
1939.408	385
1943.628	372
1947.845	363
1952.058	366
1956.267	375
1960.472	369
1964.673	360
1968.87	362
1973.063	359
1977.252	370
1981.438	368
1985.619	370
1989.797	370
1993.971	385
1998.14	385
2002.306	376
2006.469	387
2010.627	376
2014.781	380
2018.932	384
2023.078	384
2027.221	380
2031.36	368
2035.495	365
2039.627	358
2043.754	367
2047.878	353
2051.998	351
2056.114	354
2060.226	347
2064.334	349
2068.439	343
2072.54	344
2076.637	345
2080.73	333
2084.82	326
2088.906	320
2092.988	323
2097.066	312
2101.14	315
2105.211	306
2109.278	299
2113.342	293
2117.401	290
2121.457	290
2125.509	292
2129.558	290
2133.602	291
2137.643	299
2141.681	293
2145.714	291
2149.744	290
2153.77	296
2157.793	301
2161.812	307
2165.827	296
2169.838	291
2173.846	293
2177.851	278
2181.851	286
2185.848	273
2189.841	279
2193.831	275
2197.817	281
2201.799	274
2205.778	271
2209.753	285
2213.725	275
2217.693	275
2221.657	284
2225.618	272
2229.575	271
2233.529	266
2237.479	277
2241.425	258
2245.368	259
2249.307	260
2253.243	242
2257.175	257
2261.104	234
2265.029	237
2268.95	240
2272.868	234
2276.783	234
2280.694	231
2284.601	232
2288.505	230
2292.405	223
2296.302	231
2300.195	218
2304.085	216
2307.971	222
2311.854	219
2315.734	215
2319.609	222
2323.482	211
2327.351	207
2331.216	219
2335.078	224
2338.937	209
2342.792	215
2346.643	209
2350.492	218
2354.336	209
2358.178	207
2362.015	210
2365.85	203
2369.681	220
2373.508	224
2377.333	218
2381.153	219
2384.971	211
2388.785	211
2392.595	216
2396.402	216
2400.206	212
2404.007	216
2407.804	212
2411.597	202
2415.388	213
2419.174	222
2422.958	202
2426.738	217
2430.515	206
2434.289	210
2438.059	205
2441.825	198
2445.589	196
2449.349	189
2453.106	198
2456.859	183
2460.61	193
2464.356	177
2468.1	177
2471.84	178
2475.577	175
2479.311	168
2483.041	179
2486.768	171
2490.492	176
2494.213	169
2497.93	174
2501.644	172
2505.355	162
2509.062	173
2512.766	166
2516.467	161
2520.165	156
2523.859	161
2527.551	158
2531.239	152
2534.923	145
2538.605	141
2542.283	140
2545.958	135
2549.63	142
2553.299	139
2556.964	136
2560.626	142
2564.285	130
2567.941	131
2571.594	127
2575.243	126
2578.89	127
2582.533	119
2586.173	122
2589.809	122
2593.443	121
2597.073	117
2600.701	112
2604.325	109
2607.946	108
2611.564	116
2615.178	118
2618.79	117
2622.398	114
2626.004	113
2629.606	111
2633.205	112
2636.801	106
2640.394	115
2643.983	107
2647.57	110
2651.153	106
2654.734	104
2658.311	104
2661.885	103
2665.456	110
2669.025	102
2672.589	101
2676.151	94
2679.71	95
2683.266	94
2686.819	95
2690.368	99
2693.915	98
2697.458	84
2700.999	89
2704.536	95
2708.071	92
2711.602	76
2715.13	84
2718.656	89
2722.178	75
2725.697	74
2729.214	74
2732.727	76
2736.237	76
2739.744	66
2743.249	69
2746.75	65
2750.248	63
2753.743	62
2757.236	53
2760.725	60
2764.211	50
2767.695	45
2771.175	55
2774.652	43
2778.127	55
2781.598	49
2785.067	46
2788.532	45
2791.995	58
2795.455	50
2798.911	61
2802.365	57
2805.816	51
2809.264	58
2812.709	52
2816.151	66
2819.59	69
2823.026	61
2826.46	64
2829.89	61
2833.318	55
2836.742	59
2840.164	56
2843.583	63
2846.999	61
2850.412	57
2853.822	58
2857.229	66
2860.634	57
2864.035	63
2867.434	60
2870.83	71
2874.223	67
2877.613	74
2881	77
2884.385	80
2887.766	76
2891.145	79
2894.521	82
2897.894	84
2901.264	76
2904.631	75
2907.996	83
2911.358	80
2914.717	84
2918.073	81
2921.426	85
2924.777	93
2928.124	86
2931.469	97
2934.811	103
2938.15	105
2941.487	112
2944.821	101
2948.152	110
2951.48	106
2954.805	103
2958.128	105
2961.447	107
2964.765	95
2968.079	97
2971.39	95
2974.699	97
2978.005	105
2981.308	95
2984.609	95
2987.907	101
2991.202	98
2994.494	94
2997.784	91
3001.07	97
3004.355	102
3007.636	102
3010.915	105
3014.191	97
3017.464	106
3020.734	110
3024.002	108
3027.267	118
3030.53	115
3033.789	120
3037.046	121
3040.301	121
3043.552	127
3046.801	133
3050.048	142
3053.291	143
3056.532	155
3059.771	148
3063.006	160
3066.239	162
3069.469	172
3072.697	175
3075.922	180
3079.144	181
3082.364	185
3085.581	193
3088.795	195
3092.007	202
3095.216	207
3098.423	199
3101.627	215
3104.828	215
3108.026	227
3111.222	226
3114.416	230
3117.607	239
3120.795	239
3123.98	249
3127.163	255
3130.344	263
3133.521	262
3136.696	273
3139.869	285
3143.039	283
3146.206	285
3149.371	286
3152.533	295
3155.693	301
3158.85	295
3162.005	299
3165.157	296
3168.306	301
3171.453	298
3174.597	303
3177.739	305
3180.878	305
3184.014	301
3187.149	303
3190.28	308
3193.409	312
3196.536	305
3199.659	312
3202.781	310
3205.9	313
3209.016	303
3212.13	314
3215.241	305
3218.35	301
3221.456	308
3224.56	296
3227.661	292
3230.76	291
3233.856	285
3236.95	278
3240.041	279
3243.13	275
3246.216	265
3249.3	257
3252.382	260
3255.46	259
3258.537	256
3261.611	247
3264.682	243
3267.751	248
3270.818	233
3273.882	245
3276.943	236
3280.002	240
3283.059	234
3286.113	223
3289.165	232
3292.214	236
3295.261	229
3298.306	222
3301.348	230
3304.387	223
3307.425	223
3310.459	213
3313.492	225
3316.521	215
3319.549	224
3322.574	209
3325.597	219
3328.617	217
3331.635	221
3334.65	213
3337.663	207
3340.674	216
3343.682	218
3346.688	212
3349.691	221
3352.692	218
3355.691	227
3358.687	206
3361.681	212
3364.673	214
3367.662	213
3370.649	202
3373.633	184
3376.615	195
3379.595	193
3382.572	176
3385.547	189
3388.52	189
3391.49	177
3394.458	177
3397.424	175
3400.387	175
3403.348	158
3406.307	163
3409.263	165
3412.217	164
3415.168	161
3418.118	161
3421.065	144
3424.009	154
3426.951	151
3429.891	141
3432.829	140
3435.764	134
3438.697	140
3441.628	122
3444.557	121
3447.483	117
3450.407	104
3453.328	112
3456.247	98
3459.164	98
3462.079	89
3464.991	88
3467.902	82
3470.809	85
3473.715	83
3476.618	74
3479.519	67
3482.418	69
3485.315	62
3488.209	51
3491.101	51
3493.99	58
3496.878	43
3499.763	37
3502.646	44
3505.527	37
3508.405	35
3511.281	34
3514.155	22
3517.027	15
3519.897	21
3522.764	14
3525.629	16
3528.492	13
3531.352	5
3534.211	5
3537.067	-2
3539.921	1
3542.773	-8
3545.622	-4
3548.469	-8
3551.315	-9
3554.157	-9
3556.998	-9
3559.837	-14
3562.673	-14
3565.507	-18
3568.339	-17
3571.169	-21
3573.996	-21
3576.822	-29
3579.645	-27
3582.466	-30
3585.285	-29
3588.101	-38
3590.916	-28
3593.728	-32
3596.538	-32
3599.346	-38
3602.152	-31
3604.956	-37
3607.757	-29
3610.556	-34
3613.354	-44
3616.149	-43
3618.942	-43
3621.732	-44
3624.521	-43
3627.307	-43
3630.092	-49
3632.874	-43
3635.654	-53
3638.432	-46
3641.208	-46
3643.982	-50
3646.753	-53
3649.523	-48
3652.29	-49
3655.055	-44
3657.818	-52
3660.579	-52
3663.338	-52
3666.095	-49
3668.849	-53
3671.602	-55
3674.352	-51
3677.101	-57
3679.847	-55
3682.591	-64
3685.333	-55
3688.073	-60
3690.811	-59
3693.547	-59
3696.281	-62
3699.013	-60
3701.742	-64
3704.47	-57
3707.195	-62
3709.919	-60
3712.64	-62
3715.359	-64
3718.076	-70
3720.792	-63
3723.505	-59
3726.216	-59
3728.925	-68
3731.632	-59
3734.336	-64
3737.039	-60
3739.74	-68
3742.439	-77
3745.136	-67
3747.83	-69
3750.523	-69
3753.213	-80
3755.902	-66
3758.589	-66
3761.273	-65
3763.956	-70
3766.636	-67
3769.315	-65
3771.991	-67
3774.665	-74
3777.338	-67
3780.008	-69
3782.677	-74
3785.343	-67
3788.007	-74
3790.67	-72
3793.33	-67
3795.989	-65
3798.645	-71
3801.299	-66
3803.952	-68
3806.602	-68
3809.251	-73
3811.897	-74
3814.542	-74
3817.184	-72
3819.825	-69
3822.463	-73
3825.1	-64
3827.735	-72
3830.367	-75
3832.998	-74
3835.627	-67
3838.253	-70
3840.878	-69
3843.501	-69
3846.122	-75
3848.741	-69
3851.358	-67
3853.973	-67
3856.586	-64
3859.197	-66
3861.806	-71
3864.414	-66
3867.019	-73
3869.622	-65
3872.224	-58
3874.823	-53
3877.421	-46
3880.016	-37
3882.61	-17
3885.202	-21
3887.792	-28
3890.38	-45
3892.966	-58
3895.55	-65
3898.132	-67
3900.713	-75
3903.291	-73
3905.868	-66
3908.442	-72
3911.015	-71
3913.586	-75
3916.155	-69
3918.722	-72
3921.287	-71
3923.85	-68
3926.411	-70
3928.971	-81
3931.528	-72
3934.084	-70
3936.638	-74
3939.19	-79
3941.74	-70
3944.288	-73
3946.834	-76
3949.378	-75
3951.921	-72
3954.462	-77
3957	-67
3959.537	-63
3962.072	-67
3964.606	-66
3967.137	-66
3969.667	-70
3972.194	-65
3974.72	-66
3977.244	-65
3979.766	-65
3982.286	-71
3984.805	-80
3987.321	-71
3989.836	-71
3992.349	-68
3994.86	-71
3997.369	-74
3999.877	-70
4002.382	-71
4004.886	-66
4007.388	-70
4009.888	-70
4012.386	-71
4014.883	-68
4017.377	-69
4019.87	-70
4022.361	-72
4024.85	-69
4027.338	-76
4029.823	-72
4032.307	-72
4034.789	-63
4037.269	-70
4039.747	-69
4042.224	-71
4044.699	-74
4047.172	-79
4049.643	-69
4052.112	-69
4054.58	-71
4057.046	-66
4059.51	-74
4061.972	-75
4064.432	-76
4066.891	-67
4069.348	-70
4071.803	-63
4074.256	-69
4076.708	-73
4079.158	-73
4081.606	-71
4084.052	-68
4086.497	-67
4088.939	-67
4091.38	-74
4093.819	-75
4096.257	-72
4098.693	-74
4101.127	-69
4103.559	-76
4105.989	-13
4108.418	-18
4110.845	-14
4113.27	-10
4115.694	-6
4118.115	0
4120.535	-70
4122.954	-68
4125.37	-67
4127.785	-69
4130.198	-69
4132.609	-74
4135.019	-74
4137.427	-78
4139.833	-74
4142.237	-78
