Data from 2018-3-7_conc=3_n=5_RamanShift_04.txt Node
Date: Wed Mar 07 11:29:22 IST 2018
User: aro
Spectrometer: QEPB0276
Trigger mode: 0
Integration Time (sec): 3.000000E1
Scans to average: 1
Electric dark correction enabled: true
Nonlinearity correction enabled: false
Boxcar width: 0
XAxis mode: Raman Shifts
Number of Pixels in Spectrum: 1044
>>>>>Begin Spectral Data<<<<<
160.701	14
166.742	20
172.777	48
178.805	128
184.826	327
190.841	699
196.849	1135
202.85	1501
208.845	1657
214.833	1654
220.815	1629
226.789	1632
232.758	1640
238.719	1632
244.674	1639
250.623	1620
256.565	1623
262.5	1583
268.429	1578
274.351	1581
280.267	1566
286.176	1572
292.079	1565
297.975	1563
303.865	1579
309.748	1571
315.625	1567
321.495	1568
327.359	1582
333.217	1580
339.068	1591
344.912	1586
350.751	1584
356.583	1582
362.408	1602
368.227	1607
374.04	1596
379.847	1621
385.647	1605
391.44	1629
397.228	1627
403.009	1653
408.784	1656
414.553	1680
420.315	1655
426.071	1667
431.821	1660
437.565	1658
443.302	1641
449.033	1663
454.758	1641
460.477	1625
466.189	1618
471.896	1614
477.596	1579
483.29	1592
488.978	1561
494.66	1556
500.335	1542
506.005	1483
511.668	1415
517.325	1386
522.977	1303
528.622	1267
534.261	1253
539.894	1230
545.521	1231
551.141	1226
556.756	1206
562.365	1195
567.968	1187
573.565	1173
579.155	1174
584.74	1165
590.319	1163
595.892	1177
601.459	1149
607.02	1138
612.575	1133
618.124	1146
623.667	1114
629.204	1111
634.735	1087
640.261	1076
645.781	1080
651.294	1085
656.802	1081
662.304	1067
667.8	1054
673.29	1064
678.775	1065
684.254	1056
689.726	1048
695.193	1049
700.655	1040
706.11	1019
711.56	1023
717.004	990
722.442	991
727.874	1002
733.301	1017
738.722	1000
744.137	988
749.547	993
754.951	987
760.349	992
765.741	992
771.128	995
776.509	1024
781.885	1015
787.254	1026
792.618	1036
797.977	1026
803.33	1013
808.677	1019
814.019	1000
819.355	999
824.686	992
830.011	994
835.33	962
840.644	968
845.952	980
851.255	955
856.552	962
861.844	944
867.13	936
872.41	935
877.686	926
882.955	927
888.219	923
893.478	903
898.731	889
903.979	884
909.221	862
914.458	869
919.69	864
924.916	870
930.136	870
935.351	876
940.561	866
945.766	873
950.965	860
956.158	848
961.347	855
966.529	843
971.707	810
976.879	806
982.046	810
987.208	808
992.364	792
997.515	807
1002.66	813
1007.801	826
1012.936	834
1018.066	836
1023.19	837
1028.309	826
1033.423	819
1038.532	819
1043.636	815
1048.734	809
1053.827	794
1058.915	792
1063.998	798
1069.075	780
1074.147	782
1079.214	796
1084.276	788
1089.333	792
1094.385	800
1099.431	784
1104.472	792
1109.509	788
1114.54	766
1119.565	753
1124.586	733
1129.602	745
1134.613	734
1139.618	727
1144.619	741
1149.614	735
1154.604	727
1159.589	741
1164.57	748
1169.545	741
1174.515	740
1179.48	746
1184.44	737
1189.395	719
1194.345	721
1199.29	711
1204.23	720
1209.165	701
1214.095	725
1219.021	728
1223.941	742
1228.856	733
1233.766	718
1238.672	741
1243.572	733
1248.467	720
1253.358	710
1258.244	717
1263.124	687
1268	678
1272.871	675
1277.737	662
1282.599	664
1287.455	653
1292.306	652
1297.153	659
1301.995	677
1306.832	670
1311.664	678
1316.491	681
1321.314	673
1326.132	669
1330.945	652
1335.753	636
1340.556	614
1345.354	619
1350.148	623
1354.937	586
1359.722	578
1364.501	560
1369.276	569
1374.046	546
1378.811	546
1383.572	552
1388.327	544
1393.079	537
1397.825	545
1402.567	551
1407.304	565
1412.036	556
1416.764	544
1421.487	559
1426.205	560
1430.919	545
1435.628	559
1440.333	560
1445.032	560
1449.727	565
1454.418	577
1459.104	575
1463.785	565
1468.462	550
1473.134	533
1477.802	525
1482.465	508
1487.123	507
1491.777	491
1496.426	485
1501.071	477
1505.711	476
1510.347	463
1514.978	464
1519.604	460
1524.226	460
1528.844	482
1533.457	459
1538.065	463
1542.669	464
1547.269	463
1551.864	467
1556.454	467
1561.041	489
1565.622	480
1570.199	479
1574.772	484
1579.34	487
1583.904	495
1588.464	502
1593.019	504
1597.569	502
1602.115	500
1606.657	503
1611.195	499
1615.728	495
1620.256	488
1624.78	495
1629.3	491
1633.816	496
1638.327	498
1642.834	483
1647.336	489
1651.834	484
1656.328	489
1660.817	491
1665.302	483
1669.783	465
1674.259	466
1678.732	445
1683.199	428
1687.663	424
1692.122	398
1696.577	389
1701.028	380
1705.474	351
1709.917	344
1714.355	331
1718.788	328
1723.218	328
1727.643	331
1732.064	332
1736.481	335
1740.893	322
1745.301	326
1749.705	323
1754.105	308
1758.501	301
1762.893	299
1767.28	292
1771.663	286
1776.042	272
1780.417	273
1784.787	268
1789.154	264
1793.516	258
1797.874	249
1802.228	264
1806.578	252
1810.924	246
1815.266	251
1819.603	251
1823.937	250
1828.266	259
1832.591	252
1836.913	245
1841.23	253
1845.543	249
1849.852	252
1854.156	260
1858.457	256
1862.754	263
1867.047	261
1871.335	257
1875.62	255
1879.9	258
1884.177	243
1888.449	239
1892.718	248
1896.982	246
1901.243	228
1905.499	232
1909.752	220
1914	218
1918.245	223
1922.485	211
1926.722	211
1930.954	201
1935.183	210
1939.408	216
1943.628	196
1947.845	201
1952.058	201
1956.267	205
1960.472	195
1964.673	190
1968.87	193
1973.063	191
1977.252	193
1981.438	197
1985.619	184
1989.797	191
1993.971	196
1998.14	199
2002.306	202
2006.469	203
2010.627	193
2014.781	192
2018.932	190
2023.078	201
2027.221	185
2031.36	195
2035.495	188
2039.627	185
2043.754	177
2047.878	178
2051.998	184
2056.114	181
2060.226	176
2064.334	171
2068.439	171
2072.54	170
2076.637	175
2080.73	174
2084.82	168
2088.906	158
2092.988	169
2097.066	160
2101.14	171
2105.211	159
2109.278	157
2113.342	149
2117.401	163
2121.457	156
2125.509	157
2129.558	148
2133.602	153
2137.643	147
2141.681	143
2145.714	149
2149.744	149
2153.77	152
2157.793	156
2161.812	153
2165.827	152
2169.838	143
2173.846	141
2177.851	144
2181.851	140
2185.848	141
2189.841	139
2193.831	131
2197.817	143
2201.799	128
2205.778	135
2209.753	138
2213.725	139
2217.693	139
2221.657	135
2225.618	130
2229.575	130
2233.529	126
2237.479	130
2241.425	125
2245.368	132
2249.307	134
2253.243	125
2257.175	117
2261.104	118
2265.029	116
2268.95	109
2272.868	110
2276.783	111
2280.694	107
2284.601	105
2288.505	111
2292.405	111
2296.302	112
2300.195	107
2304.085	105
2307.971	104
2311.854	97
2315.734	100
2319.609	114
2323.482	102
2327.351	100
2331.216	110
2335.078	130
2338.937	112
2342.792	105
2346.643	100
2350.492	100
2354.336	100
2358.178	94
2362.015	100
2365.85	100
2369.681	105
2373.508	103
2377.333	107
2381.153	102
2384.971	97
2388.785	103
2392.595	103
2396.402	101
2400.206	98
2404.007	94
2407.804	99
2411.597	97
2415.388	95
2419.174	102
2422.958	92
2426.738	99
2430.515	97
2434.289	95
2438.059	85
2441.825	80
2445.589	89
2449.349	88
2453.106	90
2456.859	86
2460.61	83
2464.356	83
2468.1	83
2471.84	84
2475.577	82
2479.311	72
2483.041	78
2486.768	70
2490.492	72
2494.213	80
2497.93	75
2501.644	76
2505.355	74
2509.062	68
2512.766	74
2516.467	67
2520.165	63
2523.859	72
2527.551	67
2531.239	59
2534.923	67
2538.605	56
2542.283	54
2545.958	65
2549.63	56
2553.299	59
2556.964	56
2560.626	61
2564.285	61
2567.941	63
2571.594	58
2575.243	60
2578.89	54
2582.533	46
2586.173	47
2589.809	55
2593.443	57
2597.073	54
2600.701	59
2604.325	47
2607.946	43
2611.564	52
2615.178	50
2618.79	46
2622.398	51
2626.004	47
2629.606	46
2633.205	46
2636.801	45
2640.394	46
2643.983	48
2647.57	39
2651.153	36
2654.734	40
2658.311	42
2661.885	48
2665.456	45
2669.025	46
2672.589	39
2676.151	35
2679.71	32
2683.266	32
2686.819	47
2690.368	38
2693.915	35
2697.458	27
2700.999	38
2704.536	33
2708.071	34
2711.602	26
2715.13	17
2718.656	32
2722.178	27
2725.697	29
2729.214	30
2732.727	35
2736.237	34
2739.744	24
2743.249	28
2746.75	23
2750.248	26
2753.743	18
2757.236	14
2760.725	19
2764.211	19
2767.695	12
2771.175	19
2774.652	9
2778.127	16
2781.598	15
2785.067	17
2788.532	18
2791.995	23
2795.455	17
2798.911	21
2802.365	25
2805.816	16
2809.264	17
2812.709	16
2816.151	19
2819.59	27
2823.026	14
2826.46	21
2829.89	18
2833.318	21
2836.742	27
2840.164	27
2843.583	19
2846.999	23
2850.412	20
2853.822	20
2857.229	23
2860.634	19
2864.035	23
2867.434	14
2870.83	22
2874.223	17
2877.613	22
2881	28
2884.385	29
2887.766	34
2891.145	28
2894.521	32
2897.894	32
2901.264	33
2904.631	24
2907.996	34
2911.358	35
2914.717	27
2918.073	29
2921.426	26
2924.777	34
2928.124	35
2931.469	42
2934.811	48
2938.15	50
2941.487	51
2944.821	39
2948.152	43
2951.48	43
2954.805	42
2958.128	45
2961.447	44
2964.765	33
2968.079	33
2971.39	31
2974.699	28
2978.005	40
2981.308	39
2984.609	30
2987.907	38
2991.202	36
2994.494	39
2997.784	39
3001.07	41
3004.355	37
3007.636	44
3010.915	40
3014.191	33
3017.464	43
3020.734	44
3024.002	46
3027.267	45
3030.53	50
3033.789	51
3037.046	41
3040.301	45
3043.552	53
3046.801	51
3050.048	55
3053.291	55
3056.532	53
3059.771	56
3063.006	64
3066.239	64
3069.469	69
3072.697	68
3075.922	72
3079.144	74
3082.364	80
3085.581	74
3088.795	85
3092.007	88
3095.216	88
3098.423	85
3101.627	81
3104.828	97
3108.026	92
3111.222	89
3114.416	96
3117.607	101
3120.795	100
3123.98	103
3127.163	112
3130.344	112
3133.521	116
3136.696	113
3139.869	128
3143.039	118
3146.206	129
3149.371	125
3152.533	131
3155.693	129
3158.85	126
3162.005	127
3165.157	125
3168.306	126
3171.453	130
3174.597	127
3177.739	136
3180.878	126
3184.014	126
3187.149	131
3190.28	132
3193.409	132
3196.536	132
3199.659	135
3202.781	136
3205.9	132
3209.016	133
3212.13	129
3215.241	125
3218.35	135
3221.456	125
3224.56	115
3227.661	121
3230.76	119
3233.856	124
3236.95	118
3240.041	123
3243.13	120
3246.216	116
3249.3	109
3252.382	110
3255.46	111
3258.537	106
3261.611	100
3264.682	96
3267.751	100
3270.818	99
3273.882	103
3276.943	100
3280.002	106
3283.059	95
3286.113	93
3289.165	90
3292.214	96
3295.261	90
3298.306	93
3301.348	98
3304.387	91
3307.425	88
3310.459	80
3313.492	88
3316.521	91
3319.549	89
3322.574	88
3325.597	82
3328.617	90
3331.635	90
3334.65	93
3337.663	78
3340.674	90
3343.682	83
3346.688	75
3349.691	91
3352.692	88
3355.691	90
3358.687	83
3361.681	85
3364.673	86
3367.662	84
3370.649	82
3373.633	76
3376.615	78
3379.595	68
3382.572	70
3385.547	70
3388.52	71
3391.49	64
3394.458	60
3397.424	71
3400.387	62
3403.348	58
3406.307	60
3409.263	68
3412.217	67
3415.168	63
3418.118	55
3421.065	55
3424.009	50
3426.951	51
3429.891	51
3432.829	47
3435.764	55
3438.697	43
3441.628	39
3444.557	44
3447.483	41
3450.407	32
3453.328	43
3456.247	39
3459.164	34
3462.079	33
3464.991	28
3467.902	27
3470.809	23
3473.715	19
3476.618	20
3479.519	17
3482.418	13
3485.315	13
3488.209	6
3491.101	7
3493.99	11
3496.878	4
3499.763	3
3502.646	3
3505.527	3
3508.405	0
3511.281	1
3514.155	-3
3517.027	-9
3519.897	4
3522.764	-8
3525.629	-8
3528.492	-11
3531.352	-16
3534.211	-15
3537.067	-19
3539.921	-12
3542.773	-19
3545.622	-15
3548.469	-13
3551.315	-14
3554.157	-12
3556.998	-19
3559.837	-26
3562.673	-21
3565.507	-20
3568.339	-17
3571.169	-29
3573.996	-22
3576.822	-34
3579.645	-29
3582.466	-23
3585.285	-23
3588.101	-29
3590.916	-26
3593.728	-29
3596.538	-31
3599.346	-28
3602.152	-30
3604.956	-28
3607.757	-31
3610.556	-30
3613.354	-41
3616.149	-39
3618.942	-39
3621.732	-36
3624.521	-30
3627.307	-36
3630.092	-38
3632.874	-41
3635.654	-33
3638.432	-33
3641.208	-39
3643.982	-32
3646.753	-39
3649.523	-38
3652.29	-37
3655.055	-41
3657.818	-46
3660.579	-44
3663.338	-36
3666.095	-43
3668.849	-42
3671.602	-44
3674.352	-36
3677.101	-43
3679.847	-38
3682.591	-44
3685.333	-43
3688.073	-45
3690.811	-42
3693.547	-40
3696.281	-38
3699.013	-44
3701.742	-51
3704.47	-40
3707.195	-44
3709.919	-49
3712.64	-45
3715.359	-44
3718.076	-45
3720.792	-46
3723.505	-49
3726.216	-38
3728.925	-49
3731.632	-43
3734.336	-49
3737.039	-40
3739.74	-46
3742.439	-52
3745.136	-44
3747.83	-46
3750.523	-52
3753.213	-47
3755.902	-45
3758.589	-52
3761.273	-48
3763.956	-51
3766.636	-47
3769.315	-40
3771.991	-47
3774.665	-49
3777.338	-45
3780.008	-49
3782.677	-50
3785.343	-49
3788.007	-50
3790.67	-51
3793.33	-46
3795.989	-53
3798.645	-55
3801.299	-44
3803.952	-48
3806.602	-53
3809.251	-49
3811.897	-55
3814.542	-48
3817.184	-54
3819.825	-45
3822.463	-49
3825.1	-44
3827.735	-56
3830.367	-51
3832.998	-49
3835.627	-55
3838.253	-46
3840.878	-45
3843.501	-45
3846.122	-51
3848.741	-50
3851.358	-44
3853.973	-44
3856.586	-47
3859.197	-45
3861.806	-51
3864.414	-52
3867.019	-52
3869.622	-42
3872.224	-40
3874.823	-31
3877.421	-23
3880.016	-16
3882.61	3
3885.202	3
3887.792	3
3890.38	-17
3892.966	-34
3895.55	-44
3898.132	-45
3900.713	-51
3903.291	-46
3905.868	-47
3908.442	-42
3911.015	-46
3913.586	-53
3916.155	-47
3918.722	-50
3921.287	-52
3923.85	-43
3926.411	-57
3928.971	-58
3931.528	-55
3934.084	-47
3936.638	-46
3939.19	-52
3941.74	-50
3944.288	-49
3946.834	-47
3949.378	-44
3951.921	-51
3954.462	-50
3957	-48
3959.537	-43
3962.072	-47
3964.606	-51
3967.137	-48
3969.667	-55
3972.194	-50
3974.72	-46
3977.244	-49
3979.766	-51
3982.286	-51
3984.805	-55
3987.321	-45
3989.836	-47
3992.349	-45
3994.86	-51
3997.369	-48
3999.877	-52
4002.382	-52
4004.886	-46
4007.388	-53
4009.888	-51
4012.386	-54
4014.883	-46
4017.377	-43
4019.87	-48
4022.361	-50
4024.85	-42
4027.338	-46
4029.823	-48
4032.307	-53
4034.789	-48
4037.269	-51
4039.747	-49
4042.224	-52
4044.699	-52
4047.172	-55
4049.643	-54
4052.112	-52
4054.58	-48
4057.046	-51
4059.51	-50
4061.972	-52
4064.432	-48
4066.891	-50
4069.348	-46
4071.803	-45
4074.256	-49
4076.708	-47
4079.158	-54
4081.606	-49
4084.052	-53
4086.497	-49
4088.939	-45
4091.38	-52
4093.819	-57
4096.257	-59
4098.693	-55
4101.127	-45
4103.559	-53
4105.989	22
4108.418	14
4110.845	6
4113.27	13
4115.694	17
4118.115	14
4120.535	-46
4122.954	-44
4125.37	-46
4127.785	-45
4130.198	-52
4132.609	-51
4135.019	-51
4137.427	-52
4139.833	-53
4142.237	-54
