Data from 2018-3-7_conc=4_n=7_RamanShift_04.txt Node
Date: Wed Mar 07 12:09:52 IST 2018
User: aro
Spectrometer: QEPB0276
Trigger mode: 0
Integration Time (sec): 3.000000E1
Scans to average: 1
Electric dark correction enabled: true
Nonlinearity correction enabled: false
Boxcar width: 0
XAxis mode: Raman Shifts
Number of Pixels in Spectrum: 1044
>>>>>Begin Spectral Data<<<<<
160.701	8
166.742	20
172.777	49
178.805	147
184.826	376
190.841	795
196.849	1321
202.85	1718
208.845	1894
214.833	1884
220.815	1859
226.789	1836
232.758	1862
238.719	1855
244.674	1838
250.623	1832
256.565	1810
262.5	1790
268.429	1764
274.351	1762
280.267	1756
286.176	1732
292.079	1753
297.975	1749
303.865	1722
309.748	1736
315.625	1726
321.495	1719
327.359	1742
333.217	1719
339.068	1727
344.912	1750
350.751	1730
356.583	1724
362.408	1731
368.227	1751
374.04	1748
379.847	1762
385.647	1779
391.44	1778
397.228	1771
403.009	1798
408.784	1793
414.553	1816
420.315	1809
426.071	1818
431.821	1817
437.565	1800
443.302	1811
449.033	1788
454.758	1790
460.477	1783
466.189	1773
471.896	1753
477.596	1737
483.29	1742
488.978	1747
494.66	1722
500.335	1696
506.005	1648
511.668	1590
517.325	1524
522.977	1496
528.622	1464
534.261	1423
539.894	1410
545.521	1382
551.141	1369
556.756	1351
562.365	1351
567.968	1335
573.565	1332
579.155	1331
584.74	1330
590.319	1330
595.892	1333
601.459	1323
607.02	1308
612.575	1288
618.124	1292
623.667	1278
629.204	1270
634.735	1246
640.261	1254
645.781	1241
651.294	1223
656.802	1214
662.304	1215
667.8	1224
673.29	1210
678.775	1224
684.254	1211
689.726	1210
695.193	1192
700.655	1191
706.11	1178
711.56	1174
717.004	1177
722.442	1153
727.874	1155
733.301	1155
738.722	1139
744.137	1141
749.547	1151
754.951	1151
760.349	1148
765.741	1161
771.128	1141
776.509	1165
781.885	1166
787.254	1188
792.618	1175
797.977	1183
803.33	1161
808.677	1151
814.019	1158
819.355	1142
824.686	1131
830.011	1128
835.33	1122
840.644	1107
845.952	1116
851.255	1105
856.552	1103
861.844	1100
867.13	1086
872.41	1080
877.686	1078
882.955	1088
888.219	1060
893.478	1052
898.731	1022
903.979	1025
909.221	1019
914.458	1002
919.69	1010
924.916	1022
930.136	1020
935.351	1022
940.561	1030
945.766	1022
950.965	994
956.158	995
961.347	977
966.529	982
971.707	959
976.879	949
982.046	948
987.208	934
992.364	939
997.515	924
1002.66	933
1007.801	941
1012.936	956
1018.066	972
1023.19	955
1028.309	960
1033.423	960
1038.532	956
1043.636	955
1048.734	942
1053.827	931
1058.915	926
1063.998	911
1069.075	898
1074.147	907
1079.214	918
1084.276	913
1089.333	923
1094.385	916
1099.431	919
1104.472	916
1109.509	903
1114.54	903
1119.565	890
1124.586	875
1129.602	872
1134.613	871
1139.618	853
1144.619	854
1149.614	858
1154.604	844
1159.589	852
1164.57	850
1169.545	856
1174.515	857
1179.48	857
1184.44	846
1189.395	851
1194.345	842
1199.29	816
1204.23	825
1209.165	836
1214.095	847
1219.021	852
1223.941	854
1228.856	844
1233.766	854
1238.672	860
1243.572	846
1248.467	858
1253.358	827
1258.244	811
1263.124	805
1268	790
1272.871	797
1277.737	779
1282.599	783
1287.455	769
1292.306	773
1297.153	780
1301.995	787
1306.832	795
1311.664	799
1316.491	804
1321.314	782
1326.132	784
1330.945	763
1335.753	753
1340.556	746
1345.354	722
1350.148	706
1354.937	697
1359.722	679
1364.501	671
1369.276	669
1374.046	645
1378.811	648
1383.572	642
1388.327	638
1393.079	631
1397.825	640
1402.567	658
1407.304	644
1412.036	660
1416.764	653
1421.487	655
1426.205	652
1430.919	647
1435.628	664
1440.333	666
1445.032	657
1449.727	697
1454.418	681
1459.104	657
1463.785	657
1468.462	651
1473.134	642
1477.802	614
1482.465	598
1487.123	581
1491.777	583
1496.426	574
1501.071	565
1505.711	567
1510.347	547
1514.978	539
1519.604	534
1524.226	537
1528.844	540
1533.457	535
1538.065	534
1542.669	537
1547.269	532
1551.864	540
1556.454	550
1561.041	554
1565.622	571
1570.199	557
1574.772	557
1579.34	574
1583.904	582
1588.464	592
1593.019	595
1597.569	599
1602.115	595
1606.657	579
1611.195	571
1615.728	577
1620.256	581
1624.78	579
1629.3	587
1633.816	590
1638.327	594
1642.834	591
1647.336	588
1651.834	584
1656.328	576
1660.817	564
1665.302	570
1669.783	554
1674.259	545
1678.732	534
1683.199	513
1687.663	486
1692.122	466
1696.577	447
1701.028	437
1705.474	403
1709.917	398
1714.355	389
1718.788	392
1723.218	391
1727.643	396
1732.064	394
1736.481	389
1740.893	373
1745.301	373
1749.705	369
1754.105	357
1758.501	340
1762.893	341
1767.28	339
1771.663	330
1776.042	327
1780.417	322
1784.787	316
1789.154	312
1793.516	298
1797.874	296
1802.228	296
1806.578	285
1810.924	282
1815.266	293
1819.603	286
1823.937	291
1828.266	288
1832.591	292
1836.913	293
1841.23	289
1845.543	296
1849.852	307
1854.156	299
1858.457	296
1862.754	304
1867.047	294
1871.335	307
1875.62	294
1879.9	291
1884.177	288
1888.449	290
1892.718	292
1896.982	280
1901.243	268
1905.499	271
1909.752	255
1914	256
1918.245	260
1922.485	246
1926.722	239
1930.954	238
1935.183	247
1939.408	242
1943.628	237
1947.845	243
1952.058	234
1956.267	232
1960.472	226
1964.673	224
1968.87	222
1973.063	234
1977.252	225
1981.438	232
1985.619	211
1989.797	205
1993.971	231
1998.14	225
2002.306	234
2006.469	240
2010.627	230
2014.781	229
2018.932	223
2023.078	235
2027.221	223
2031.36	224
2035.495	217
2039.627	221
2043.754	215
2047.878	216
2051.998	216
2056.114	209
2060.226	204
2064.334	213
2068.439	205
2072.54	202
2076.637	199
2080.73	201
2084.82	204
2088.906	192
2092.988	194
2097.066	186
2101.14	196
2105.211	180
2109.278	187
2113.342	176
2117.401	177
2121.457	174
2125.509	178
2129.558	182
2133.602	177
2137.643	177
2141.681	175
2145.714	177
2149.744	177
2153.77	183
2157.793	180
2161.812	180
2165.827	176
2169.838	174
2173.846	161
2177.851	164
2181.851	161
2185.848	163
2189.841	161
2193.831	161
2197.817	167
2201.799	158
2205.778	167
2209.753	159
2213.725	161
2217.693	166
2221.657	166
2225.618	149
2229.575	152
2233.529	155
2237.479	158
2241.425	150
2245.368	149
2249.307	154
2253.243	144
2257.175	154
2261.104	138
2265.029	141
2268.95	145
2272.868	142
2276.783	131
2280.694	132
2284.601	135
2288.505	134
2292.405	137
2296.302	140
2300.195	132
2304.085	122
2307.971	126
2311.854	124
2315.734	120
2319.609	124
2323.482	124
2327.351	123
2331.216	131
2335.078	146
2338.937	136
2342.792	126
2346.643	128
2350.492	122
2354.336	121
2358.178	116
2362.015	128
2365.85	119
2369.681	132
2373.508	126
2377.333	123
2381.153	124
2384.971	126
2388.785	111
2392.595	118
2396.402	125
2400.206	128
2404.007	121
2407.804	122
2411.597	121
2415.388	121
2419.174	126
2422.958	116
2426.738	123
2430.515	117
2434.289	115
2438.059	109
2441.825	112
2445.589	112
2449.349	112
2453.106	107
2456.859	109
2460.61	111
2464.356	106
2468.1	106
2471.84	101
2475.577	97
2479.311	94
2483.041	100
2486.768	96
2490.492	92
2494.213	90
2497.93	93
2501.644	98
2505.355	91
2509.062	93
2512.766	88
2516.467	87
2520.165	90
2523.859	95
2527.551	86
2531.239	90
2534.923	80
2538.605	86
2542.283	74
2545.958	82
2549.63	78
2553.299	74
2556.964	67
2560.626	75
2564.285	72
2567.941	73
2571.594	74
2575.243	72
2578.89	68
2582.533	59
2586.173	64
2589.809	68
2593.443	77
2597.073	66
2600.701	63
2604.325	62
2607.946	51
2611.564	58
2615.178	59
2618.79	58
2622.398	64
2626.004	60
2629.606	53
2633.205	60
2636.801	55
2640.394	66
2643.983	60
2647.57	64
2651.153	58
2654.734	57
2658.311	55
2661.885	55
2665.456	64
2669.025	56
2672.589	47
2676.151	57
2679.71	46
2683.266	47
2686.819	56
2690.368	50
2693.915	48
2697.458	37
2700.999	48
2704.536	51
2708.071	48
2711.602	45
2715.13	34
2718.656	44
2722.178	44
2725.697	38
2729.214	41
2732.727	44
2736.237	41
2739.744	29
2743.249	32
2746.75	31
2750.248	37
2753.743	27
2757.236	24
2760.725	31
2764.211	20
2767.695	18
2771.175	28
2774.652	30
2778.127	28
2781.598	27
2785.067	30
2788.532	24
2791.995	29
2795.455	23
2798.911	25
2802.365	31
2805.816	26
2809.264	28
2812.709	23
2816.151	33
2819.59	35
2823.026	23
2826.46	33
2829.89	28
2833.318	28
2836.742	31
2840.164	26
2843.583	28
2846.999	28
2850.412	24
2853.822	36
2857.229	34
2860.634	37
2864.035	74
2867.434	38
2870.83	37
2874.223	38
2877.613	42
2881	39
2884.385	44
2887.766	40
2891.145	40
2894.521	45
2897.894	43
2901.264	43
2904.631	35
2907.996	40
2911.358	45
2914.717	44
2918.073	46
2921.426	43
2924.777	49
2928.124	47
2931.469	52
2934.811	63
2938.15	50
2941.487	64
2944.821	51
2948.152	59
2951.48	53
2954.805	55
2958.128	51
2961.447	57
2964.765	50
2968.079	54
2971.39	53
2974.699	51
2978.005	56
2981.308	55
2984.609	46
2987.907	54
2991.202	48
2994.494	56
2997.784	42
3001.07	47
3004.355	52
3007.636	54
3010.915	55
3014.191	47
3017.464	54
3020.734	62
3024.002	62
3027.267	62
3030.53	62
3033.789	64
3037.046	62
3040.301	58
3043.552	67
3046.801	67
3050.048	71
3053.291	75
3056.532	68
3059.771	72
3063.006	86
3066.239	82
3069.469	88
3072.697	93
3075.922	98
3079.144	96
3082.364	98
3085.581	98
3088.795	108
3092.007	117
3095.216	113
3098.423	111
3101.627	112
3104.828	124
3108.026	118
3111.222	120
3114.416	129
3117.607	126
3120.795	123
3123.98	132
3127.163	129
3130.344	142
3133.521	143
3136.696	142
3139.869	153
3143.039	157
3146.206	160
3149.371	155
3152.533	166
3155.693	162
3158.85	169
3162.005	164
3165.157	165
3168.306	160
3171.453	167
3174.597	157
3177.739	161
3180.878	166
3184.014	167
3187.149	167
3190.28	174
3193.409	170
3196.536	171
3199.659	171
3202.781	170
3205.9	166
3209.016	164
3212.13	159
3215.241	173
3218.35	165
3221.456	156
3224.56	157
3227.661	157
3230.76	159
3233.856	147
3236.95	148
3240.041	149
3243.13	142
3246.216	141
3249.3	135
3252.382	136
3255.46	133
3258.537	135
3261.611	129
3264.682	133
3267.751	132
3270.818	123
3273.882	129
3276.943	120
3280.002	124
3283.059	129
3286.113	118
3289.165	115
3292.214	114
3295.261	126
3298.306	121
3301.348	122
3304.387	120
3307.425	124
3310.459	114
3313.492	116
3316.521	120
3319.549	117
3322.574	112
3325.597	115
3328.617	114
3331.635	118
3334.65	120
3337.663	105
3340.674	112
3343.682	112
3346.688	115
3349.691	113
3352.692	116
3355.691	123
3358.687	111
3361.681	119
3364.673	114
3367.662	109
3370.649	107
3373.633	105
3376.615	101
3379.595	102
3382.572	92
3385.547	94
3388.52	94
3391.49	91
3394.458	84
3397.424	93
3400.387	88
3403.348	80
3406.307	81
3409.263	90
3412.217	84
3415.168	91
3418.118	79
3421.065	79
3424.009	77
3426.951	77
3429.891	77
3432.829	73
3435.764	72
3438.697	70
3441.628	54
3444.557	56
3447.483	58
3450.407	49
3453.328	55
3456.247	43
3459.164	50
3462.079	41
3464.991	40
3467.902	43
3470.809	40
3473.715	35
3476.618	39
3479.519	26
3482.418	25
3485.315	32
3488.209	22
3491.101	15
3493.99	19
3496.878	10
3499.763	8
3502.646	14
3505.527	11
3508.405	9
3511.281	8
3514.155	6
3517.027	-1
3519.897	3
3522.764	-1
3525.629	-4
3528.492	-6
3531.352	-10
3534.211	-6
3537.067	-10
3539.921	-4
3542.773	-14
3545.622	-13
3548.469	-14
3551.315	-14
3554.157	-17
3556.998	-17
3559.837	-21
3562.673	-24
3565.507	-28
3568.339	-18
3571.169	-21
3573.996	-20
3576.822	-30
3579.645	-25
3582.466	-23
3585.285	-26
3588.101	-26
3590.916	-29
3593.728	-28
3596.538	-31
3599.346	-25
3602.152	-30
3604.956	-24
3607.757	-28
3610.556	-26
3613.354	-38
3616.149	-38
3618.942	-37
3621.732	-41
3624.521	-33
3627.307	-32
3630.092	-36
3632.874	-39
3635.654	-41
3638.432	-34
3641.208	-35
3643.982	-37
3646.753	-42
3649.523	-30
3652.29	-43
3655.055	-38
3657.818	-41
3660.579	-41
3663.338	-39
3666.095	-46
3668.849	-43
3671.602	-43
3674.352	-43
3677.101	-45
3679.847	-46
3682.591	-46
3685.333	-44
3688.073	-45
3690.811	-43
3693.547	-45
3696.281	-40
3699.013	-43
3701.742	-46
3704.47	-41
3707.195	-46
3709.919	-45
3712.64	-46
3715.359	-47
3718.076	-47
3720.792	-47
3723.505	-49
3726.216	-47
3728.925	-51
3731.632	-50
3734.336	-50
3737.039	-48
3739.74	-50
3742.439	-58
3745.136	-52
3747.83	-47
3750.523	-50
3753.213	-59
3755.902	-49
3758.589	-49
3761.273	-48
3763.956	-45
3766.636	-44
3769.315	-41
3771.991	-50
3774.665	-55
3777.338	-55
3780.008	-51
3782.677	-54
3785.343	-51
3788.007	-53
3790.67	-54
3793.33	-52
3795.989	-52
3798.645	-52
3801.299	-49
3803.952	-51
3806.602	-49
3809.251	-52
3811.897	-53
3814.542	-57
3817.184	-47
3819.825	-44
3822.463	-51
3825.1	-43
3827.735	-56
3830.367	-50
3832.998	-53
3835.627	-54
3838.253	-45
3840.878	-47
3843.501	-44
3846.122	-55
3848.741	-54
3851.358	-50
3853.973	-48
3856.586	-48
3859.197	-51
3861.806	-52
3864.414	-49
3867.019	-55
3869.622	-46
3872.224	-43
3874.823	-34
3877.421	-26
3880.016	-16
3882.61	-11
3885.202	-10
3887.792	-14
3890.38	-27
3892.966	-38
3895.55	-47
3898.132	-50
3900.713	-52
3903.291	-50
3905.868	-47
3908.442	-51
3911.015	-48
3913.586	-54
3916.155	-51
3918.722	-54
3921.287	-52
3923.85	-52
3926.411	-54
3928.971	-62
3931.528	-53
3934.084	-50
3936.638	-47
3939.19	-61
3941.74	-49
3944.288	-51
3946.834	-50
3949.378	-51
3951.921	-56
3954.462	-51
3957	-46
3959.537	-41
3962.072	-46
3964.606	-52
3967.137	-50
3969.667	-57
3972.194	-50
3974.72	-44
3977.244	-49
3979.766	-58
3982.286	-55
3984.805	-59
3987.321	-54
3989.836	-48
3992.349	-50
3994.86	-50
3997.369	-50
3999.877	-52
4002.382	-47
4004.886	-48
4007.388	-52
4009.888	-48
4012.386	-48
4014.883	-51
4017.377	-45
4019.87	-51
4022.361	-53
4024.85	-50
4027.338	-53
4029.823	-51
4032.307	-52
4034.789	-50
4037.269	-53
4039.747	-53
4042.224	-54
4044.699	-54
4047.172	-53
4049.643	-50
4052.112	-49
4054.58	-48
4057.046	-53
4059.51	-51
4061.972	-53
4064.432	-51
4066.891	-50
4069.348	-52
4071.803	-53
4074.256	-55
4076.708	-53
4079.158	-58
4081.606	-51
4084.052	-53
4086.497	-43
4088.939	-50
4091.38	-51
4093.819	-56
4096.257	-54
4098.693	-52
4101.127	-49
4103.559	-62
4105.989	14
4108.418	6
4110.845	6
4113.27	8
4115.694	10
4118.115	10
4120.535	-49
4122.954	-45
4125.37	-48
4127.785	-48
4130.198	-51
4132.609	-54
4135.019	-52
4137.427	-59
4139.833	-56
4142.237	-57
