Data from 2018-3-7_conc=6_n=4_RamanShift_02.txt Node
Date: Wed Mar 07 13:06:22 IST 2018
User: aro
Spectrometer: QEPB0276
Trigger mode: 0
Integration Time (sec): 3.000000E1
Scans to average: 1
Electric dark correction enabled: true
Nonlinearity correction enabled: false
Boxcar width: 0
XAxis mode: Raman Shifts
Number of Pixels in Spectrum: 1044
>>>>>Begin Spectral Data<<<<<
160.701	11
166.742	24
172.777	50
178.805	147
184.826	424
190.841	907
196.849	1520
202.85	1990
208.845	2168
214.833	2169
220.815	2136
226.789	2153
232.758	2139
238.719	2170
244.674	2110
250.623	2119
256.565	2068
262.5	2052
268.429	2016
274.351	2004
280.267	1991
286.176	1992
292.079	1965
297.975	1950
303.865	1962
309.748	1956
315.625	1935
321.495	1945
327.359	1961
333.217	1974
339.068	1936
344.912	1938
350.751	1948
356.583	1946
362.408	1943
368.227	1973
374.04	1971
379.847	1979
385.647	1972
391.44	2001
397.228	1992
403.009	2014
408.784	2020
414.553	2010
420.315	2030
426.071	2027
431.821	2014
437.565	2019
443.302	2009
449.033	2020
454.758	1989
460.477	1988
466.189	1996
471.896	1960
477.596	1960
483.29	1970
488.978	1953
494.66	1950
500.335	1911
506.005	1858
511.668	1806
517.325	1767
522.977	1704
528.622	1660
534.261	1642
539.894	1626
545.521	1600
551.141	1583
556.756	1572
562.365	1570
567.968	1567
573.565	1560
579.155	1547
584.74	1536
590.319	1518
595.892	1529
601.459	1519
607.02	1529
612.575	1507
618.124	1491
623.667	1496
629.204	1463
634.735	1422
640.261	1442
645.781	1428
651.294	1415
656.802	1422
662.304	1425
667.8	1442
673.29	1411
678.775	1417
684.254	1409
689.726	1405
695.193	1387
700.655	1387
706.11	1378
711.56	1382
717.004	1360
722.442	1345
727.874	1363
733.301	1356
738.722	1336
744.137	1335
749.547	1335
754.951	1327
760.349	1326
765.741	1333
771.128	1324
776.509	1343
781.885	1363
787.254	1362
792.618	1351
797.977	1361
803.33	1340
808.677	1327
814.019	1314
819.355	1322
824.686	1303
830.011	1317
835.33	1302
840.644	1302
845.952	1296
851.255	1282
856.552	1276
861.844	1281
867.13	1271
872.41	1262
877.686	1251
882.955	1245
888.219	1235
893.478	1218
898.731	1200
903.979	1184
909.221	1178
914.458	1180
919.69	1174
924.916	1171
930.136	1189
935.351	1190
940.561	1174
945.766	1179
950.965	1170
956.158	1159
961.347	1149
966.529	1132
971.707	1119
976.879	1094
982.046	1084
987.208	1091
992.364	1083
997.515	1094
1002.66	1094
1007.801	1117
1012.936	1117
1018.066	1129
1023.19	1119
1028.309	1116
1033.423	1128
1038.532	1119
1043.636	1095
1048.734	1100
1053.827	1082
1058.915	1066
1063.998	1064
1069.075	1059
1074.147	1066
1079.214	1052
1084.276	1070
1089.333	1071
1094.385	1064
1099.431	1052
1104.472	1069
1109.509	1066
1114.54	1041
1119.565	1030
1124.586	1029
1129.602	1009
1134.613	1007
1139.618	994
1144.619	994
1149.614	999
1154.604	1004
1159.589	1003
1164.57	998
1169.545	983
1174.515	1002
1179.48	1000
1184.44	997
1189.395	987
1194.345	985
1199.29	968
1204.23	962
1209.165	965
1214.095	979
1219.021	985
1223.941	987
1228.856	987
1233.766	999
1238.672	998
1243.572	995
1248.467	985
1253.358	975
1258.244	962
1263.124	941
1268	936
1272.871	916
1277.737	908
1282.599	908
1287.455	904
1292.306	899
1297.153	910
1301.995	927
1306.832	916
1311.664	926
1316.491	935
1321.314	928
1326.132	918
1330.945	901
1335.753	884
1340.556	876
1345.354	855
1350.148	849
1354.937	818
1359.722	800
1364.501	773
1369.276	759
1374.046	755
1378.811	745
1383.572	744
1388.327	734
1393.079	732
1397.825	741
1402.567	754
1407.304	757
1412.036	751
1416.764	760
1421.487	764
1426.205	776
1430.919	758
1435.628	789
1440.333	785
1445.032	773
1449.727	802
1454.418	798
1459.104	786
1463.785	773
1468.462	763
1473.134	733
1477.802	727
1482.465	707
1487.123	687
1491.777	686
1496.426	656
1501.071	656
1505.711	657
1510.347	658
1514.978	642
1519.604	633
1524.226	626
1528.844	635
1533.457	615
1538.065	623
1542.669	625
1547.269	616
1551.864	625
1556.454	640
1561.041	650
1565.622	651
1570.199	640
1574.772	644
1579.34	668
1583.904	675
1588.464	681
1593.019	694
1597.569	697
1602.115	699
1606.657	700
1611.195	693
1615.728	688
1620.256	681
1624.78	676
1629.3	681
1633.816	675
1638.327	700
1642.834	681
1647.336	681
1651.834	680
1656.328	682
1660.817	685
1665.302	678
1669.783	653
1674.259	638
1678.732	621
1683.199	591
1687.663	572
1692.122	541
1696.577	526
1701.028	509
1705.474	463
1709.917	461
1714.355	442
1718.788	443
1723.218	444
1727.643	450
1732.064	452
1736.481	459
1740.893	435
1745.301	437
1749.705	422
1754.105	411
1758.501	406
1762.893	396
1767.28	389
1771.663	381
1776.042	387
1780.417	370
1784.787	365
1789.154	361
1793.516	348
1797.874	341
1802.228	348
1806.578	321
1810.924	321
1815.266	331
1819.603	328
1823.937	327
1828.266	331
1832.591	341
1836.913	338
1841.23	342
1845.543	332
1849.852	341
1854.156	345
1858.457	341
1862.754	354
1867.047	344
1871.335	341
1875.62	339
1879.9	344
1884.177	334
1888.449	322
1892.718	324
1896.982	325
1901.243	313
1905.499	304
1909.752	300
1914	302
1918.245	295
1922.485	282
1926.722	283
1930.954	288
1935.183	275
1939.408	270
1943.628	268
1947.845	265
1952.058	259
1956.267	257
1960.472	264
1964.673	254
1968.87	247
1973.063	250
1977.252	252
1981.438	256
1985.619	256
1989.797	256
1993.971	267
1998.14	257
2002.306	268
2006.469	267
2010.627	266
2014.781	261
2018.932	266
2023.078	267
2027.221	260
2031.36	259
2035.495	250
2039.627	244
2043.754	256
2047.878	246
2051.998	250
2056.114	242
2060.226	235
2064.334	229
2068.439	232
2072.54	233
2076.637	236
2080.73	239
2084.82	231
2088.906	226
2092.988	220
2097.066	218
2101.14	220
2105.211	211
2109.278	215
2113.342	204
2117.401	218
2121.457	193
2125.509	202
2129.558	203
2133.602	211
2137.643	206
2141.681	202
2145.714	202
2149.744	202
2153.77	206
2157.793	210
2161.812	210
2165.827	204
2169.838	197
2173.846	197
2177.851	199
2181.851	200
2185.848	196
2189.841	195
2193.831	185
2197.817	188
2201.799	193
2205.778	191
2209.753	200
2213.725	191
2217.693	186
2221.657	184
2225.618	185
2229.575	186
2233.529	178
2237.479	183
2241.425	176
2245.368	169
2249.307	179
2253.243	169
2257.175	175
2261.104	170
2265.029	158
2268.95	165
2272.868	166
2276.783	168
2280.694	155
2284.601	164
2288.505	155
2292.405	154
2296.302	158
2300.195	153
2304.085	142
2307.971	149
2311.854	144
2315.734	142
2319.609	144
2323.482	143
2327.351	147
2331.216	158
2335.078	154
2338.937	156
2342.792	145
2346.643	148
2350.492	150
2354.336	148
2358.178	137
2362.015	151
2365.85	144
2369.681	150
2373.508	157
2377.333	144
2381.153	147
2384.971	153
2388.785	143
2392.595	142
2396.402	144
2400.206	148
2404.007	139
2407.804	141
2411.597	133
2415.388	134
2419.174	152
2422.958	139
2426.738	147
2430.515	143
2434.289	134
2438.059	137
2441.825	128
2445.589	133
2449.349	129
2453.106	128
2456.859	130
2460.61	130
2464.356	125
2468.1	126
2471.84	117
2475.577	114
2479.311	114
2483.041	119
2486.768	118
2490.492	113
2494.213	111
2497.93	116
2501.644	118
2505.355	111
2509.062	108
2512.766	118
2516.467	105
2520.165	102
2523.859	104
2527.551	104
2531.239	97
2534.923	98
2538.605	97
2542.283	88
2545.958	91
2549.63	87
2553.299	91
2556.964	85
2560.626	91
2564.285	88
2567.941	90
2571.594	76
2575.243	85
2578.89	84
2582.533	84
2586.173	81
2589.809	83
2593.443	82
2597.073	80
2600.701	79
2604.325	78
2607.946	67
2611.564	77
2615.178	71
2618.79	75
2622.398	80
2626.004	74
2629.606	68
2633.205	74
2636.801	66
2640.394	76
2643.983	71
2647.57	71
2651.153	67
2654.734	67
2658.311	69
2661.885	68
2665.456	70
2669.025	71
2672.589	68
2676.151	62
2679.71	61
2683.266	70
2686.819	68
2690.368	62
2693.915	61
2697.458	53
2700.999	63
2704.536	65
2708.071	47
2711.602	54
2715.13	53
2718.656	53
2722.178	44
2725.697	47
2729.214	48
2732.727	45
2736.237	54
2739.744	44
2743.249	46
2746.75	44
2750.248	43
2753.743	41
2757.236	39
2760.725	29
2764.211	38
2767.695	29
2771.175	27
2774.652	32
2778.127	34
2781.598	27
2785.067	26
2788.532	36
2791.995	34
2795.455	32
2798.911	34
2802.365	31
2805.816	25
2809.264	35
2812.709	31
2816.151	34
2819.59	52
2823.026	33
2826.46	33
2829.89	33
2833.318	40
2836.742	42
2840.164	37
2843.583	33
2846.999	42
2850.412	42
2853.822	39
2857.229	38
2860.634	35
2864.035	42
2867.434	37
2870.83	48
2874.223	40
2877.613	47
2881	52
2884.385	51
2887.766	46
2891.145	43
2894.521	53
2897.894	42
2901.264	46
2904.631	51
2907.996	48
2911.358	57
2914.717	52
2918.073	49
2921.426	52
2924.777	59
2928.124	57
2931.469	68
2934.811	75
2938.15	68
2941.487	75
2944.821	64
2948.152	72
2951.48	64
2954.805	68
2958.128	62
2961.447	68
2964.765	66
2968.079	61
2971.39	59
2974.699	65
2978.005	66
2981.308	64
2984.609	61
2987.907	69
2991.202	66
2994.494	64
2997.784	57
3001.07	67
3004.355	61
3007.636	69
3010.915	70
3014.191	65
3017.464	67
3020.734	70
3024.002	72
3027.267	70
3030.53	72
3033.789	78
3037.046	73
3040.301	72
3043.552	79
3046.801	91
3050.048	88
3053.291	84
3056.532	98
3059.771	104
3063.006	109
3066.239	114
3069.469	117
3072.697	121
3075.922	126
3079.144	123
3082.364	130
3085.581	129
3088.795	133
3092.007	140
3095.216	147
3098.423	141
3101.627	140
3104.828	155
3108.026	152
3111.222	153
3114.416	161
3117.607	165
3120.795	158
3123.98	168
3127.163	170
3130.344	183
3133.521	181
3136.696	185
3139.869	187
3143.039	194
3146.206	194
3149.371	193
3152.533	206
3155.693	204
3158.85	204
3162.005	206
3165.157	208
3168.306	205
3171.453	201
3174.597	203
3177.739	212
3180.878	209
3184.014	200
3187.149	201
3190.28	214
3193.409	207
3196.536	207
3199.659	210
3202.781	209
3205.9	212
3209.016	202
3212.13	206
3215.241	208
3218.35	202
3221.456	203
3224.56	198
3227.661	197
3230.76	197
3233.856	196
3236.95	182
3240.041	181
3243.13	186
3246.216	176
3249.3	164
3252.382	171
3255.46	168
3258.537	167
3261.611	166
3264.682	166
3267.751	165
3270.818	154
3273.882	156
3276.943	154
3280.002	158
3283.059	152
3286.113	149
3289.165	158
3292.214	151
3295.261	153
3298.306	148
3301.348	155
3304.387	143
3307.425	144
3310.459	142
3313.492	139
3316.521	144
3319.549	153
3322.574	139
3325.597	142
3328.617	138
3331.635	146
3334.65	146
3337.663	128
3340.674	142
3343.682	137
3346.688	139
3349.691	142
3352.692	154
3355.691	142
3358.687	145
3361.681	140
3364.673	146
3367.662	145
3370.649	132
3373.633	133
3376.615	126
3379.595	117
3382.572	118
3385.547	123
3388.52	117
3391.49	115
3394.458	116
3397.424	118
3400.387	110
3403.348	107
3406.307	107
3409.263	115
3412.217	106
3415.168	111
3418.118	104
3421.065	95
3424.009	95
3426.951	95
3429.891	98
3432.829	97
3435.764	93
3438.697	87
3441.628	76
3444.557	76
3447.483	75
3450.407	74
3453.328	69
3456.247	66
3459.164	62
3462.079	48
3464.991	54
3467.902	52
3470.809	51
3473.715	52
3476.618	45
3479.519	35
3482.418	44
3485.315	40
3488.209	33
3491.101	28
3493.99	36
3496.878	28
3499.763	22
3502.646	17
3505.527	24
3508.405	15
3511.281	16
3514.155	8
3517.027	5
3519.897	12
3522.764	1
3525.629	6
3528.492	0
3531.352	-4
3534.211	-3
3537.067	-6
3539.921	-7
3542.773	-10
3545.622	-9
3548.469	-5
3551.315	-2
3554.157	-13
3556.998	-16
3559.837	-16
3562.673	-21
3565.507	-12
3568.339	-15
3571.169	-23
3573.996	-18
3576.822	-28
3579.645	-27
3582.466	-28
3585.285	-25
3588.101	-28
3590.916	-26
3593.728	-31
3596.538	-34
3599.346	-32
3602.152	-35
3604.956	-25
3607.757	-27
3610.556	-37
3613.354	-42
3616.149	-36
3618.942	-33
3621.732	-38
3624.521	-35
3627.307	-39
3630.092	-44
3632.874	-43
3635.654	-42
3638.432	-43
3641.208	-34
3643.982	-36
3646.753	-45
3649.523	-41
3652.29	-45
3655.055	-37
3657.818	-48
3660.579	-42
3663.338	-40
3666.095	-45
3668.849	-46
3671.602	-49
3674.352	-50
3677.101	-48
3679.847	-44
3682.591	-54
3685.333	-44
3688.073	-51
3690.811	-44
3693.547	-52
3696.281	-46
3699.013	-48
3701.742	-55
3704.47	-49
3707.195	-48
3709.919	-49
3712.64	-51
3715.359	-48
3718.076	-51
3720.792	-46
3723.505	-53
3726.216	-47
3728.925	-50
3731.632	-51
3734.336	-56
3737.039	-49
3739.74	-54
3742.439	-60
3745.136	-51
3747.83	-57
3750.523	-61
3753.213	-67
3755.902	-52
3758.589	-53
3761.273	-50
3763.956	-50
3766.636	-45
3769.315	-50
3771.991	-53
3774.665	-58
3777.338	-55
3780.008	-55
3782.677	-58
3785.343	-53
3788.007	-55
3790.67	-58
3793.33	-55
3795.989	-59
3798.645	-57
3801.299	-62
3803.952	-59
3806.602	-54
3809.251	-59
3811.897	-61
3814.542	-61
3817.184	-56
3819.825	-52
3822.463	-56
3825.1	-50
3827.735	-56
3830.367	-55
3832.998	-61
3835.627	-56
3838.253	-52
3840.878	-54
3843.501	-52
3846.122	-59
3848.741	-57
3851.358	-55
3853.973	-59
3856.586	-60
3859.197	-58
3861.806	-62
3864.414	-57
3867.019	-54
3869.622	-50
3872.224	-44
3874.823	-31
3877.421	-25
3880.016	-15
3882.61	5
3885.202	7
3887.792	1
3890.38	-27
3892.966	-42
3895.55	-52
3898.132	-52
3900.713	-58
3903.291	-60
3905.868	-55
3908.442	-57
3911.015	-60
3913.586	-58
3916.155	-60
3918.722	-56
3921.287	-58
3923.85	-54
3926.411	-63
3928.971	-67
3931.528	-59
3934.084	-54
3936.638	-59
3939.19	-59
3941.74	-53
3944.288	-59
3946.834	-53
3949.378	-54
3951.921	-61
3954.462	-57
3957	-51
3959.537	-50
3962.072	-59
3964.606	-58
3967.137	-55
3969.667	-61
3972.194	-59
3974.72	-54
3977.244	-56
3979.766	-57
3982.286	-58
3984.805	-59
3987.321	-54
3989.836	-52
3992.349	-57
3994.86	-55
3997.369	-58
3999.877	-56
4002.382	-57
4004.886	-55
4007.388	-58
4009.888	-55
4012.386	-53
4014.883	-53
4017.377	-54
4019.87	-56
4022.361	-59
4024.85	-55
4027.338	-63
4029.823	-58
4032.307	-61
4034.789	-56
4037.269	-60
4039.747	-60
4042.224	-60
4044.699	-57
4047.172	-57
4049.643	-58
4052.112	-60
4054.58	-55
4057.046	-52
4059.51	-61
4061.972	-60
4064.432	-51
4066.891	-55
4069.348	-51
4071.803	-51
4074.256	-56
4076.708	-57
4079.158	-59
4081.606	-54
4084.052	-58
4086.497	-57
4088.939	-56
4091.38	-61
4093.819	-65
4096.257	-58
4098.693	-61
4101.127	-54
4103.559	-64
4105.989	10
4108.418	4
4110.845	5
4113.27	4
4115.694	15
4118.115	9
4120.535	-61
4122.954	-58
4125.37	-55
4127.785	-52
4130.198	-58
4132.609	-56
4135.019	-59
4137.427	-59
4139.833	-59
4142.237	-55
