Data from 2018-3-7_conc=2_n=6_RamanShift_03.txt Node
Date: Wed Mar 07 10:55:22 IST 2018
User: aro
Spectrometer: QEPB0276
Trigger mode: 0
Integration Time (sec): 3.000000E1
Scans to average: 1
Electric dark correction enabled: true
Nonlinearity correction enabled: false
Boxcar width: 0
XAxis mode: Raman Shifts
Number of Pixels in Spectrum: 1044
>>>>>Begin Spectral Data<<<<<
160.701	14
166.742	24
172.777	45
178.805	135
184.826	354
190.841	748
196.849	1210
202.85	1586
208.845	1739
214.833	1722
220.815	1696
226.789	1723
232.758	1721
238.719	1717
244.674	1726
250.623	1724
256.565	1725
262.5	1688
268.429	1668
274.351	1679
280.267	1658
286.176	1675
292.079	1677
297.975	1688
303.865	1687
309.748	1668
315.625	1663
321.495	1698
327.359	1696
333.217	1691
339.068	1716
344.912	1704
350.751	1704
356.583	1696
362.408	1704
368.227	1709
374.04	1715
379.847	1761
385.647	1744
391.44	1743
397.228	1756
403.009	1774
408.784	1787
414.553	1788
420.315	1797
426.071	1771
431.821	1789
437.565	1791
443.302	1791
449.033	1788
454.758	1779
460.477	1761
466.189	1741
471.896	1711
477.596	1726
483.29	1704
488.978	1724
494.66	1702
500.335	1643
506.005	1592
511.668	1505
517.325	1464
522.977	1389
528.622	1349
534.261	1322
539.894	1288
545.521	1284
551.141	1255
556.756	1262
562.365	1253
567.968	1235
573.565	1212
579.155	1217
584.74	1209
590.319	1208
595.892	1208
601.459	1202
607.02	1193
612.575	1180
618.124	1171
623.667	1157
629.204	1150
634.735	1131
640.261	1114
645.781	1112
651.294	1106
656.802	1100
662.304	1087
667.8	1104
673.29	1092
678.775	1070
684.254	1084
689.726	1081
695.193	1071
700.655	1075
706.11	1071
711.56	1049
717.004	1053
722.442	1032
727.874	1047
733.301	1030
738.722	1019
744.137	1026
749.547	1020
754.951	1010
760.349	1022
765.741	1034
771.128	1016
776.509	1058
781.885	1074
787.254	1074
792.618	1063
797.977	1067
803.33	1059
808.677	1058
814.019	1049
819.355	1041
824.686	1023
830.011	1023
835.33	1017
840.644	1009
845.952	1016
851.255	992
856.552	995
861.844	987
867.13	963
872.41	963
877.686	972
882.955	955
888.219	949
893.478	935
898.731	919
903.979	912
909.221	903
914.458	892
919.69	887
924.916	897
930.136	890
935.351	887
940.561	886
945.766	896
950.965	893
956.158	881
961.347	877
966.529	867
971.707	848
976.879	835
982.046	835
987.208	827
992.364	820
997.515	819
1002.66	839
1007.801	848
1012.936	843
1018.066	849
1023.19	848
1028.309	845
1033.423	841
1038.532	846
1043.636	850
1048.734	836
1053.827	822
1058.915	832
1063.998	813
1069.075	802
1074.147	815
1079.214	819
1084.276	814
1089.333	823
1094.385	816
1099.431	822
1104.472	807
1109.509	810
1114.54	787
1119.565	777
1124.586	762
1129.602	766
1134.613	762
1139.618	749
1144.619	758
1149.614	763
1154.604	762
1159.589	752
1164.57	759
1169.545	758
1174.515	751
1179.48	765
1184.44	753
1189.395	750
1194.345	743
1199.29	736
1204.23	736
1209.165	729
1214.095	746
1219.021	741
1223.941	746
1228.856	746
1233.766	750
1238.672	753
1243.572	753
1248.467	748
1253.358	731
1258.244	731
1263.124	706
1268	696
1272.871	682
1277.737	678
1282.599	690
1287.455	679
1292.306	685
1297.153	685
1301.995	684
1306.832	695
1311.664	697
1316.491	701
1321.314	693
1326.132	697
1330.945	676
1335.753	667
1340.556	636
1345.354	631
1350.148	630
1354.937	603
1359.722	587
1364.501	586
1369.276	587
1374.046	563
1378.811	570
1383.572	569
1388.327	563
1393.079	571
1397.825	577
1402.567	569
1407.304	585
1412.036	574
1416.764	568
1421.487	570
1426.205	565
1430.919	568
1435.628	580
1440.333	587
1445.032	580
1449.727	600
1454.418	593
1459.104	589
1463.785	583
1468.462	566
1473.134	552
1477.802	529
1482.465	526
1487.123	512
1491.777	508
1496.426	508
1501.071	485
1505.711	486
1510.347	483
1514.978	496
1519.604	487
1524.226	471
1528.844	476
1533.457	476
1538.065	476
1542.669	470
1547.269	476
1551.864	480
1556.454	491
1561.041	501
1565.622	495
1570.199	490
1574.772	491
1579.34	511
1583.904	504
1588.464	519
1593.019	518
1597.569	511
1602.115	509
1606.657	519
1611.195	519
1615.728	504
1620.256	506
1624.78	505
1629.3	511
1633.816	509
1638.327	512
1642.834	503
1647.336	504
1651.834	503
1656.328	510
1660.817	501
1665.302	494
1669.783	488
1674.259	489
1678.732	461
1683.199	452
1687.663	440
1692.122	410
1696.577	399
1701.028	381
1705.474	367
1709.917	354
1714.355	351
1718.788	352
1723.218	353
1727.643	355
1732.064	351
1736.481	351
1740.893	327
1745.301	334
1749.705	324
1754.105	324
1758.501	315
1762.893	304
1767.28	296
1771.663	296
1776.042	287
1780.417	289
1784.787	279
1789.154	274
1793.516	274
1797.874	258
1802.228	262
1806.578	262
1810.924	256
1815.266	258
1819.603	261
1823.937	264
1828.266	258
1832.591	263
1836.913	264
1841.23	260
1845.543	257
1849.852	265
1854.156	261
1858.457	264
1862.754	269
1867.047	265
1871.335	257
1875.62	257
1879.9	263
1884.177	249
1888.449	252
1892.718	251
1896.982	233
1901.243	233
1905.499	243
1909.752	231
1914	217
1918.245	229
1922.485	214
1926.722	220
1930.954	217
1935.183	218
1939.408	226
1943.628	213
1947.845	213
1952.058	211
1956.267	209
1960.472	211
1964.673	198
1968.87	203
1973.063	211
1977.252	209
1981.438	202
1985.619	192
1989.797	198
1993.971	200
1998.14	202
2002.306	207
2006.469	206
2010.627	191
2014.781	206
2018.932	206
2023.078	197
2027.221	200
2031.36	204
2035.495	197
2039.627	184
2043.754	189
2047.878	190
2051.998	184
2056.114	187
2060.226	170
2064.334	176
2068.439	178
2072.54	175
2076.637	184
2080.73	180
2084.82	181
2088.906	174
2092.988	172
2097.066	171
2101.14	168
2105.211	171
2109.278	168
2113.342	160
2117.401	161
2121.457	160
2125.509	156
2129.558	156
2133.602	154
2137.643	164
2141.681	152
2145.714	162
2149.744	163
2153.77	166
2157.793	163
2161.812	171
2165.827	156
2169.838	144
2173.846	156
2177.851	142
2181.851	156
2185.848	145
2189.841	142
2193.831	139
2197.817	147
2201.799	145
2205.778	140
2209.753	138
2213.725	141
2217.693	146
2221.657	139
2225.618	134
2229.575	133
2233.529	133
2237.479	143
2241.425	125
2245.368	128
2249.307	131
2253.243	124
2257.175	133
2261.104	121
2265.029	121
2268.95	124
2272.868	118
2276.783	115
2280.694	112
2284.601	106
2288.505	116
2292.405	115
2296.302	117
2300.195	112
2304.085	109
2307.971	104
2311.854	103
2315.734	103
2319.609	109
2323.482	109
2327.351	109
2331.216	122
2335.078	133
2338.937	122
2342.792	105
2346.643	105
2350.492	108
2354.336	101
2358.178	96
2362.015	106
2365.85	98
2369.681	107
2373.508	115
2377.333	116
2381.153	113
2384.971	102
2388.785	100
2392.595	105
2396.402	111
2400.206	102
2404.007	102
2407.804	103
2411.597	100
2415.388	98
2419.174	101
2422.958	94
2426.738	103
2430.515	102
2434.289	104
2438.059	87
2441.825	97
2445.589	92
2449.349	95
2453.106	95
2456.859	90
2460.61	81
2464.356	92
2468.1	87
2471.84	84
2475.577	78
2479.311	89
2483.041	88
2486.768	80
2490.492	88
2494.213	77
2497.93	83
2501.644	83
2505.355	75
2509.062	77
2512.766	79
2516.467	68
2520.165	74
2523.859	74
2527.551	69
2531.239	68
2534.923	69
2538.605	68
2542.283	61
2545.958	70
2549.63	63
2553.299	69
2556.964	59
2560.626	62
2564.285	69
2567.941	57
2571.594	55
2575.243	61
2578.89	58
2582.533	58
2586.173	56
2589.809	62
2593.443	63
2597.073	59
2600.701	55
2604.325	49
2607.946	41
2611.564	49
2615.178	55
2618.79	56
2622.398	49
2626.004	48
2629.606	51
2633.205	50
2636.801	48
2640.394	53
2643.983	48
2647.57	44
2651.153	41
2654.734	41
2658.311	45
2661.885	46
2665.456	48
2669.025	45
2672.589	39
2676.151	46
2679.71	44
2683.266	40
2686.819	40
2690.368	45
2693.915	41
2697.458	34
2700.999	39
2704.536	39
2708.071	43
2711.602	30
2715.13	28
2718.656	35
2722.178	32
2725.697	31
2729.214	32
2732.727	33
2736.237	27
2739.744	25
2743.249	26
2746.75	22
2750.248	26
2753.743	20
2757.236	24
2760.725	20
2764.211	16
2767.695	19
2771.175	16
2774.652	18
2778.127	25
2781.598	22
2785.067	16
2788.532	13
2791.995	22
2795.455	18
2798.911	19
2802.365	25
2805.816	21
2809.264	20
2812.709	20
2816.151	25
2819.59	35
2823.026	26
2826.46	27
2829.89	21
2833.318	21
2836.742	26
2840.164	19
2843.583	17
2846.999	27
2850.412	23
2853.822	29
2857.229	27
2860.634	20
2864.035	24
2867.434	25
2870.83	30
2874.223	28
2877.613	26
2881	32
2884.385	33
2887.766	33
2891.145	30
2894.521	34
2897.894	31
2901.264	36
2904.631	31
2907.996	36
2911.358	38
2914.717	37
2918.073	34
2921.426	29
2924.777	38
2928.124	45
2931.469	42
2934.811	49
2938.15	46
2941.487	60
2944.821	46
2948.152	52
2951.48	39
2954.805	48
2958.128	38
2961.447	55
2964.765	35
2968.079	37
2971.39	38
2974.699	38
2978.005	49
2981.308	41
2984.609	38
2987.907	46
2991.202	37
2994.494	42
2997.784	36
3001.07	39
3004.355	41
3007.636	41
3010.915	39
3014.191	41
3017.464	44
3020.734	49
3024.002	49
3027.267	52
3030.53	50
3033.789	49
3037.046	53
3040.301	46
3043.552	50
3046.801	55
3050.048	52
3053.291	59
3056.532	61
3059.771	58
3063.006	65
3066.239	80
3069.469	77
3072.697	76
3075.922	80
3079.144	78
3082.364	81
3085.581	83
3088.795	84
3092.007	89
3095.216	92
3098.423	93
3101.627	85
3104.828	91
3108.026	96
3111.222	102
3114.416	104
3117.607	100
3120.795	108
3123.98	107
3127.163	118
3130.344	114
3133.521	115
3136.696	110
3139.869	123
3143.039	126
3146.206	135
3149.371	123
3152.533	134
3155.693	142
3158.85	139
3162.005	135
3165.157	128
3168.306	124
3171.453	134
3174.597	135
3177.739	135
3180.878	137
3184.014	130
3187.149	137
3190.28	135
3193.409	138
3196.536	139
3199.659	144
3202.781	134
3205.9	135
3209.016	137
3212.13	140
3215.241	139
3218.35	129
3221.456	141
3224.56	127
3227.661	126
3230.76	117
3233.856	128
3236.95	122
3240.041	109
3243.13	117
3246.216	105
3249.3	110
3252.382	109
3255.46	118
3258.537	107
3261.611	105
3264.682	110
3267.751	103
3270.818	98
3273.882	101
3276.943	102
3280.002	105
3283.059	95
3286.113	98
3289.165	95
3292.214	92
3295.261	97
3298.306	96
3301.348	99
3304.387	98
3307.425	89
3310.459	86
3313.492	92
3316.521	93
3319.549	95
3322.574	85
3325.597	88
3328.617	86
3331.635	89
3334.65	101
3337.663	78
3340.674	89
3343.682	86
3346.688	85
3349.691	89
3352.692	86
3355.691	90
3358.687	89
3361.681	77
3364.673	86
3367.662	79
3370.649	88
3373.633	79
3376.615	77
3379.595	73
3382.572	69
3385.547	76
3388.52	78
3391.49	66
3394.458	59
3397.424	65
3400.387	76
3403.348	60
3406.307	55
3409.263	65
3412.217	61
3415.168	65
3418.118	58
3421.065	53
3424.009	52
3426.951	56
3429.891	52
3432.829	53
3435.764	51
3438.697	50
3441.628	41
3444.557	42
3447.483	38
3450.407	34
3453.328	40
3456.247	38
3459.164	36
3462.079	32
3464.991	27
3467.902	31
3470.809	29
3473.715	18
3476.618	21
3479.519	15
3482.418	10
3485.315	17
3488.209	8
3491.101	11
3493.99	13
3496.878	6
3499.763	3
3502.646	7
3505.527	5
3508.405	0
3511.281	0
3514.155	-1
3517.027	-9
3519.897	-3
3522.764	-4
3525.629	-11
3528.492	-9
3531.352	-21
3534.211	-20
3537.067	-21
3539.921	-18
3542.773	-25
3545.622	-12
3548.469	-10
3551.315	-19
3554.157	-17
3556.998	-16
3559.837	-17
3562.673	-22
3565.507	-24
3568.339	-22
3571.169	-28
3573.996	-23
3576.822	-35
3579.645	-31
3582.466	-23
3585.285	-24
3588.101	-29
3590.916	-20
3593.728	-29
3596.538	-34
3599.346	-34
3602.152	-33
3604.956	-34
3607.757	-30
3610.556	-30
3613.354	-38
3616.149	-35
3618.942	-36
3621.732	-33
3624.521	-30
3627.307	-32
3630.092	-35
3632.874	-38
3635.654	-42
3638.432	-37
3641.208	-38
3643.982	-37
3646.753	-44
3649.523	-38
3652.29	-41
3655.055	-37
3657.818	-42
3660.579	-39
3663.338	-38
3666.095	-41
3668.849	-42
3671.602	-40
3674.352	-40
3677.101	-40
3679.847	-41
3682.591	-47
3685.333	-42
3688.073	-47
3690.811	-39
3693.547	-47
3696.281	-40
3699.013	-43
3701.742	-44
3704.47	-38
3707.195	-43
3709.919	-45
3712.64	-43
3715.359	-47
3718.076	-47
3720.792	-45
3723.505	-46
3726.216	-45
3728.925	-50
3731.632	-43
3734.336	-40
3737.039	-47
3739.74	-47
3742.439	-47
3745.136	-47
3747.83	-45
3750.523	-48
3753.213	-52
3755.902	-51
3758.589	-46
3761.273	-46
3763.956	-43
3766.636	-42
3769.315	-41
3771.991	-51
3774.665	-52
3777.338	-46
3780.008	-50
3782.677	-51
3785.343	-49
3788.007	-51
3790.67	-52
3793.33	-49
3795.989	-53
3798.645	-46
3801.299	-44
3803.952	-45
3806.602	-49
3809.251	-46
3811.897	-52
3814.542	-56
3817.184	-51
3819.825	-47
3822.463	-53
3825.1	-48
3827.735	-55
3830.367	-50
3832.998	-53
3835.627	-51
3838.253	-45
3840.878	-44
3843.501	-40
3846.122	-51
3848.741	-53
3851.358	-50
3853.973	-46
3856.586	-48
3859.197	-46
3861.806	-51
3864.414	-51
3867.019	-49
3869.622	-43
3872.224	-37
3874.823	-30
3877.421	-26
3880.016	-15
3882.61	3
3885.202	-2
3887.792	-6
3890.38	-20
3892.966	-34
3895.55	-45
3898.132	-48
3900.713	-51
3903.291	-51
3905.868	-44
3908.442	-50
3911.015	-48
3913.586	-56
3916.155	-51
3918.722	-53
3921.287	-49
3923.85	-49
3926.411	-53
3928.971	-56
3931.528	-52
3934.084	-49
3936.638	-50
3939.19	-50
3941.74	-44
3944.288	-41
3946.834	-45
3949.378	-49
3951.921	-57
3954.462	-53
3957	-41
3959.537	-45
3962.072	-45
3964.606	-49
3967.137	-46
3969.667	-50
3972.194	-44
3974.72	-45
3977.244	-47
3979.766	-46
3982.286	-51
3984.805	-57
3987.321	-50
3989.836	-44
3992.349	-53
3994.86	-52
3997.369	-51
3999.877	-48
4002.382	-47
4004.886	-46
4007.388	-50
4009.888	-48
4012.386	-53
4014.883	-49
4017.377	-46
4019.87	-48
4022.361	-54
4024.85	-44
4027.338	-52
4029.823	-52
4032.307	-54
4034.789	-46
4037.269	-47
4039.747	-51
4042.224	-53
4044.699	-50
4047.172	-48
4049.643	-53
4052.112	-46
4054.58	-46
4057.046	-49
4059.51	-51
4061.972	-56
4064.432	-49
4066.891	-43
4069.348	-47
4071.803	-45
4074.256	-51
4076.708	-53
4079.158	-52
4081.606	-50
4084.052	-50
4086.497	-47
4088.939	-51
4091.38	-49
4093.819	-48
4096.257	-54
4098.693	-55
4101.127	-46
4103.559	-56
4105.989	23
4108.418	21
4110.845	15
4113.27	18
4115.694	20
4118.115	14
4120.535	-50
4122.954	-51
4125.37	-47
4127.785	-45
4130.198	-45
4132.609	-53
4135.019	-55
4137.427	-55
4139.833	-52
4142.237	-56
