Data from 2018-3-7_conc=0_n=3_RamanShift_02.txt Node
Date: Wed Mar 07 10:11:53 IST 2018
User: aro
Spectrometer: QEPB0276
Trigger mode: 0
Integration Time (sec): 3.000000E1
Scans to average: 1
Electric dark correction enabled: true
Nonlinearity correction enabled: false
Boxcar width: 0
XAxis mode: Raman Shifts
Number of Pixels in Spectrum: 1044
>>>>>Begin Spectral Data<<<<<
160.701	17
166.742	24
172.777	65
178.805	185
184.826	491
190.841	1053
196.849	1745
202.85	2297
208.845	2535
214.833	2564
220.815	2511
226.789	2527
232.758	2539
238.719	2534
244.674	2532
250.623	2513
256.565	2495
262.5	2461
268.429	2469
274.351	2458
280.267	2449
286.176	2444
292.079	2430
297.975	2445
303.865	2444
309.748	2420
315.625	2418
321.495	2443
327.359	2444
333.217	2435
339.068	2447
344.912	2450
350.751	2477
356.583	2460
362.408	2487
368.227	2481
374.04	2503
379.847	2504
385.647	2530
391.44	2549
397.228	2545
403.009	2563
408.784	2597
414.553	2598
420.315	2623
426.071	2616
431.821	2627
437.565	2634
443.302	2638
449.033	2621
454.758	2618
460.477	2569
466.189	2552
471.896	2499
477.596	2503
483.29	2490
488.978	2492
494.66	2477
500.335	2422
506.005	2344
511.668	2249
517.325	2136
522.977	2050
528.622	2001
534.261	1963
539.894	1907
545.521	1896
551.141	1862
556.756	1837
562.365	1816
567.968	1818
573.565	1801
579.155	1784
584.74	1781
590.319	1757
595.892	1797
601.459	1780
607.02	1776
612.575	1758
618.124	1733
623.667	1729
629.204	1692
634.735	1653
640.261	1675
645.781	1649
651.294	1649
656.802	1639
662.304	1628
667.8	1643
673.29	1626
678.775	1614
684.254	1609
689.726	1597
695.193	1591
700.655	1596
706.11	1572
711.56	1575
717.004	1558
722.442	1544
727.874	1536
733.301	1539
738.722	1528
744.137	1521
749.547	1549
754.951	1523
760.349	1513
765.741	1534
771.128	1540
776.509	1556
781.885	1576
787.254	1587
792.618	1595
797.977	1579
803.33	1586
808.677	1567
814.019	1566
819.355	1547
824.686	1528
830.011	1544
835.33	1536
840.644	1514
845.952	1515
851.255	1520
856.552	1514
861.844	1499
867.13	1518
872.41	1579
877.686	1662
882.955	1740
888.219	1743
893.478	1643
898.731	1501
903.979	1425
909.221	1379
914.458	1351
919.69	1334
924.916	1336
930.136	1337
935.351	1364
940.561	1344
945.766	1352
950.965	1348
956.158	1316
961.347	1313
966.529	1282
971.707	1274
976.879	1273
982.046	1246
987.208	1262
992.364	1249
997.515	1253
1002.66	1265
1007.801	1276
1012.936	1292
1018.066	1311
1023.19	1314
1028.309	1316
1033.423	1320
1038.532	1332
1043.636	1342
1048.734	1367
1053.827	1359
1058.915	1332
1063.998	1279
1069.075	1274
1074.147	1277
1079.214	1303
1084.276	1319
1089.333	1323
1094.385	1344
1099.431	1311
1104.472	1281
1109.509	1248
1114.54	1215
1119.565	1204
1124.586	1177
1129.602	1174
1134.613	1152
1139.618	1154
1144.619	1130
1149.614	1144
1154.604	1146
1159.589	1151
1164.57	1157
1169.545	1157
1174.515	1153
1179.48	1147
1184.44	1126
1189.395	1115
1194.345	1114
1199.29	1088
1204.23	1106
1209.165	1101
1214.095	1106
1219.021	1106
1223.941	1106
1228.856	1135
1233.766	1144
1238.672	1132
1243.572	1136
1248.467	1128
1253.358	1118
1258.244	1098
1263.124	1073
1268	1068
1272.871	1065
1277.737	1069
1282.599	1071
1287.455	1050
1292.306	1061
1297.153	1053
1301.995	1062
1306.832	1056
1311.664	1054
1316.491	1054
1321.314	1053
1326.132	1050
1330.945	1022
1335.753	996
1340.556	966
1345.354	959
1350.148	946
1354.937	915
1359.722	889
1364.501	865
1369.276	857
1374.046	843
1378.811	840
1383.572	841
1388.327	852
1393.079	845
1397.825	860
1402.567	855
1407.304	880
1412.036	882
1416.764	885
1421.487	892
1426.205	896
1430.919	897
1435.628	920
1440.333	910
1445.032	916
1449.727	979
1454.418	1009
1459.104	1016
1463.785	991
1468.462	936
1473.134	889
1477.802	847
1482.465	819
1487.123	803
1491.777	775
1496.426	752
1501.071	738
1505.711	714
1510.347	711
1514.978	702
1519.604	697
1524.226	698
1528.844	686
1533.457	675
1538.065	682
1542.669	686
1547.269	680
1551.864	693
1556.454	715
1561.041	721
1565.622	725
1570.199	720
1574.772	732
1579.34	744
1583.904	748
1588.464	773
1593.019	747
1597.569	754
1602.115	761
1606.657	757
1611.195	749
1615.728	751
1620.256	736
1624.78	735
1629.3	728
1633.816	738
1638.327	741
1642.834	723
1647.336	723
1651.834	724
1656.328	732
1660.817	727
1665.302	714
1669.783	679
1674.259	663
1678.732	654
1683.199	627
1687.663	609
1692.122	563
1696.577	549
1701.028	517
1705.474	470
1709.917	468
1714.355	461
1718.788	460
1723.218	463
1727.643	473
1732.064	479
1736.481	463
1740.893	452
1745.301	447
1749.705	438
1754.105	433
1758.501	425
1762.893	406
1767.28	405
1771.663	402
1776.042	391
1780.417	380
1784.787	369
1789.154	362
1793.516	347
1797.874	339
1802.228	333
1806.578	334
1810.924	332
1815.266	330
1819.603	343
1823.937	343
1828.266	340
1832.591	353
1836.913	352
1841.23	353
1845.543	354
1849.852	365
1854.156	368
1858.457	363
1862.754	356
1867.047	340
1871.335	357
1875.62	345
1879.9	350
1884.177	341
1888.449	336
1892.718	330
1896.982	317
1901.243	312
1905.499	309
1909.752	293
1914	289
1918.245	279
1922.485	279
1926.722	260
1930.954	268
1935.183	257
1939.408	260
1943.628	251
1947.845	266
1952.058	250
1956.267	248
1960.472	249
1964.673	242
1968.87	242
1973.063	258
1977.252	252
1981.438	259
1985.619	252
1989.797	258
1993.971	261
1998.14	259
2002.306	273
2006.469	272
2010.627	263
2014.781	282
2018.932	261
2023.078	273
2027.221	270
2031.36	264
2035.495	253
2039.627	248
2043.754	241
2047.878	245
2051.998	238
2056.114	234
2060.226	234
2064.334	235
2068.439	221
2072.54	226
2076.637	222
2080.73	228
2084.82	218
2088.906	211
2092.988	223
2097.066	210
2101.14	210
2105.211	203
2109.278	199
2113.342	192
2117.401	204
2121.457	196
2125.509	198
2129.558	192
2133.602	194
2137.643	205
2141.681	202
2145.714	200
2149.744	206
2153.77	210
2157.793	213
2161.812	203
2165.827	202
2169.838	195
2173.846	193
2177.851	208
2181.851	208
2185.848	200
2189.841	200
2193.831	190
2197.817	197
2201.799	196
2205.778	189
2209.753	191
2213.725	192
2217.693	195
2221.657	195
2225.618	192
2229.575	183
2233.529	183
2237.479	189
2241.425	187
2245.368	188
2249.307	178
2253.243	170
2257.175	177
2261.104	170
2265.029	177
2268.95	169
2272.868	172
2276.783	168
2280.694	158
2284.601	161
2288.505	155
2292.405	170
2296.302	170
2300.195	162
2304.085	158
2307.971	159
2311.854	158
2315.734	144
2319.609	156
2323.482	153
2327.351	155
2331.216	169
2335.078	191
2338.937	175
2342.792	156
2346.643	160
2350.492	157
2354.336	159
2358.178	156
2362.015	164
2365.85	154
2369.681	164
2373.508	163
2377.333	158
2381.153	165
2384.971	157
2388.785	156
2392.595	164
2396.402	164
2400.206	154
2404.007	155
2407.804	159
2411.597	155
2415.388	157
2419.174	154
2422.958	144
2426.738	155
2430.515	154
2434.289	155
2438.059	147
2441.825	144
2445.589	146
2449.349	144
2453.106	141
2456.859	138
2460.61	140
2464.356	142
2468.1	134
2471.84	131
2475.577	125
2479.311	130
2483.041	125
2486.768	121
2490.492	128
2494.213	125
2497.93	125
2501.644	124
2505.355	115
2509.062	112
2512.766	119
2516.467	114
2520.165	115
2523.859	112
2527.551	105
2531.239	100
2534.923	97
2538.605	97
2542.283	90
2545.958	105
2549.63	94
2553.299	91
2556.964	86
2560.626	90
2564.285	85
2567.941	89
2571.594	85
2575.243	86
2578.89	86
2582.533	79
2586.173	79
2589.809	86
2593.443	81
2597.073	84
2600.701	89
2604.325	78
2607.946	71
2611.564	78
2615.178	79
2618.79	83
2622.398	77
2626.004	76
2629.606	74
2633.205	71
2636.801	72
2640.394	80
2643.983	74
2647.57	71
2651.153	70
2654.734	78
2658.311	81
2661.885	71
2665.456	72
2669.025	72
2672.589	69
2676.151	65
2679.71	57
2683.266	60
2686.819	75
2690.368	66
2693.915	64
2697.458	60
2700.999	71
2704.536	68
2708.071	68
2711.602	57
2715.13	54
2718.656	55
2722.178	59
2725.697	56
2729.214	57
2732.727	62
2736.237	53
2739.744	44
2743.249	45
2746.75	47
2750.248	53
2753.743	39
2757.236	42
2760.725	39
2764.211	38
2767.695	39
2771.175	36
2774.652	36
2778.127	35
2781.598	33
2785.067	32
2788.532	34
2791.995	41
2795.455	36
2798.911	37
2802.365	45
2805.816	38
2809.264	42
2812.709	37
2816.151	50
2819.59	52
2823.026	50
2826.46	50
2829.89	47
2833.318	47
2836.742	58
2840.164	52
2843.583	56
2846.999	58
2850.412	61
2853.822	60
2857.229	74
2860.634	62
2864.035	73
2867.434	82
2870.83	89
2874.223	89
2877.613	99
2881	109
2884.385	121
2887.766	128
2891.145	130
2894.521	120
2897.894	130
2901.264	129
2904.631	119
2907.996	121
2911.358	130
2914.717	129
2918.073	131
2921.426	125
2924.777	141
2928.124	139
2931.469	163
2934.811	179
2938.15	197
2941.487	199
2944.821	176
2948.152	173
2951.48	156
2954.805	148
2958.128	137
2961.447	131
2964.765	123
2968.079	118
2971.39	113
2974.699	114
2978.005	121
2981.308	110
2984.609	118
2987.907	108
2991.202	111
2994.494	98
2997.784	93
3001.07	84
3004.355	88
3007.636	91
3010.915	85
3014.191	83
3017.464	81
3020.734	88
3024.002	85
3027.267	87
3030.53	86
3033.789	89
3037.046	80
3040.301	86
3043.552	84
3046.801	90
3050.048	97
3053.291	96
3056.532	104
3059.771	102
3063.006	113
3066.239	120
3069.469	120
3072.697	116
3075.922	125
3079.144	125
3082.364	132
3085.581	134
3088.795	139
3092.007	136
3095.216	141
3098.423	143
3101.627	137
3104.828	154
3108.026	149
3111.222	149
3114.416	160
3117.607	159
3120.795	159
3123.98	163
3127.163	181
3130.344	171
3133.521	173
3136.696	180
3139.869	187
3143.039	183
3146.206	191
3149.371	193
3152.533	206
3155.693	194
3158.85	196
3162.005	204
3165.157	206
3168.306	195
3171.453	196
3174.597	205
3177.739	200
3180.878	207
3184.014	202
3187.149	200
3190.28	204
3193.409	203
3196.536	197
3199.659	204
3202.781	210
3205.9	202
3209.016	199
3212.13	197
3215.241	198
3218.35	191
3221.456	205
3224.56	195
3227.661	183
3230.76	177
3233.856	177
3236.95	168
3240.041	178
3243.13	166
3246.216	164
3249.3	154
3252.382	150
3255.46	156
3258.537	152
3261.611	145
3264.682	155
3267.751	153
3270.818	138
3273.882	144
3276.943	138
3280.002	137
3283.059	145
3286.113	143
3289.165	132
3292.214	130
3295.261	142
3298.306	137
3301.348	135
3304.387	132
3307.425	131
3310.459	134
3313.492	132
3316.521	138
3319.549	136
3322.574	126
3325.597	126
3328.617	134
3331.635	142
3334.65	141
3337.663	125
3340.674	127
3343.682	126
3346.688	132
3349.691	128
3352.692	129
3355.691	141
3358.687	128
3361.681	125
3364.673	127
3367.662	120
3370.649	124
3373.633	121
3376.615	116
3379.595	108
3382.572	104
3385.547	116
3388.52	105
3391.49	107
3394.458	97
3397.424	100
3400.387	106
3403.348	95
3406.307	93
3409.263	95
3412.217	94
3415.168	94
3418.118	90
3421.065	82
3424.009	79
3426.951	80
3429.891	78
3432.829	82
3435.764	78
3438.697	77
3441.628	64
3444.557	61
3447.483	58
3450.407	54
3453.328	57
3456.247	48
3459.164	48
3462.079	38
3464.991	43
3467.902	43
3470.809	32
3473.715	32
3476.618	27
3479.519	21
3482.418	21
3485.315	19
3488.209	5
3491.101	10
3493.99	15
3496.878	9
3499.763	4
3502.646	5
3505.527	9
3508.405	0
3511.281	3
3514.155	-2
3517.027	-18
3519.897	-4
3522.764	-6
3525.629	-6
3528.492	-17
3531.352	-23
3534.211	-21
3537.067	-21
3539.921	-17
3542.773	-29
3545.622	-23
3548.469	-25
3551.315	-29
3554.157	-29
3556.998	-29
3559.837	-31
3562.673	-26
3565.507	-28
3568.339	-28
3571.169	-38
3573.996	-32
3576.822	-46
3579.645	-39
3582.466	-36
3585.285	-33
3588.101	-42
3590.916	-36
3593.728	-44
3596.538	-43
3599.346	-45
3602.152	-41
3604.956	-47
3607.757	-42
3610.556	-47
3613.354	-50
3616.149	-58
3618.942	-43
3621.732	-53
3624.521	-45
3627.307	-45
3630.092	-56
3632.874	-54
3635.654	-58
3638.432	-53
3641.208	-51
3643.982	-50
3646.753	-48
3649.523	-52
3652.29	-57
3655.055	-48
3657.818	-58
3660.579	-55
3663.338	-52
3666.095	-54
3668.849	-55
3671.602	-56
3674.352	-57
3677.101	-58
3679.847	-56
3682.591	-62
3685.333	-56
3688.073	-59
3690.811	-59
3693.547	-57
3696.281	-61
3699.013	-60
3701.742	-62
3704.47	-55
3707.195	-60
3709.919	-61
3712.64	-60
3715.359	-63
3718.076	-71
3720.792	-65
3723.505	-65
3726.216	-58
3728.925	-61
3731.632	-60
3734.336	-66
3737.039	-63
3739.74	-68
3742.439	-69
3745.136	-63
3747.83	-61
3750.523	-66
3753.213	-68
3755.902	-68
3758.589	-65
3761.273	-64
3763.956	-72
3766.636	-62
3769.315	-63
3771.991	-70
3774.665	-69
3777.338	-67
3780.008	-64
3782.677	-74
3785.343	-67
3788.007	-68
3790.67	-69
3793.33	-68
3795.989	-72
3798.645	-71
3801.299	-65
3803.952	-63
3806.602	-65
3809.251	-68
3811.897	-76
3814.542	-71
3817.184	-71
3819.825	-64
3822.463	-62
3825.1	-60
3827.735	-72
3830.367	-67
3832.998	-71
3835.627	-73
3838.253	-60
3840.878	-64
3843.501	-64
3846.122	-70
3848.741	-70
3851.358	-68
3853.973	-66
3856.586	-71
3859.197	-69
3861.806	-70
3864.414	-72
3867.019	-72
3869.622	-66
3872.224	-63
3874.823	-52
3877.421	-47
3880.016	-32
3882.61	-20
3885.202	-25
3887.792	-27
3890.38	-46
3892.966	-54
3895.55	-66
3898.132	-63
3900.713	-64
3903.291	-75
3905.868	-64
3908.442	-71
3911.015	-67
3913.586	-70
3916.155	-70
3918.722	-69
3921.287	-66
3923.85	-69
3926.411	-73
3928.971	-77
3931.528	-67
3934.084	-65
3936.638	-67
3939.19	-77
3941.74	-66
3944.288	-69
3946.834	-65
3949.378	-70
3951.921	-71
3954.462	-66
3957	-61
3959.537	-62
3962.072	-69
3964.606	-69
3967.137	-64
3969.667	-70
3972.194	-63
3974.72	-65
3977.244	-69
3979.766	-69
3982.286	-69
3984.805	-71
3987.321	-66
3989.836	-61
3992.349	-65
3994.86	-68
3997.369	-70
3999.877	-69
4002.382	-68
4004.886	-63
4007.388	-69
4009.888	-67
4012.386	-76
4014.883	-68
4017.377	-63
4019.87	-67
4022.361	-75
4024.85	-63
4027.338	-73
4029.823	-71
4032.307	-73
4034.789	-65
4037.269	-66
4039.747	-66
4042.224	-66
4044.699	-70
4047.172	-74
4049.643	-70
4052.112	-62
4054.58	-67
4057.046	-63
4059.51	-67
4061.972	-76
4064.432	-68
4066.891	-68
4069.348	-67
4071.803	-62
4074.256	-62
4076.708	-67
4079.158	-71
4081.606	-68
4084.052	-68
4086.497	-63
4088.939	-64
4091.38	-73
4093.819	-72
4096.257	-71
4098.693	-72
4101.127	-67
4103.559	-73
4105.989	19
4108.418	15
4110.845	8
4113.27	8
4115.694	8
4118.115	12
4120.535	-70
4122.954	-68
4125.37	-67
4127.785	-62
4130.198	-63
4132.609	-68
4135.019	-72
4137.427	-74
4139.833	-71
4142.237	-74
