Data from 2018-3-7_conc=5_n=7_RamanShift_01.txt Node
Date: Wed Mar 07 12:43:22 IST 2018
User: aro
Spectrometer: QEPB0276
Trigger mode: 0
Integration Time (sec): 3.000000E1
Scans to average: 1
Electric dark correction enabled: true
Nonlinearity correction enabled: false
Boxcar width: 0
XAxis mode: Raman Shifts
Number of Pixels in Spectrum: 1044
>>>>>Begin Spectral Data<<<<<
160.701	5
166.742	26
172.777	59
178.805	198
184.826	531
190.841	1127
196.849	1893
202.85	2477
208.845	2726
214.833	2727
220.815	2662
226.789	2684
232.758	2700
238.719	2695
244.674	2652
250.623	2624
256.565	2592
262.5	2538
268.429	2512
274.351	2487
280.267	2478
286.176	2453
292.079	2433
297.975	2435
303.865	2434
309.748	2393
315.625	2402
321.495	2398
327.359	2413
333.217	2399
339.068	2401
344.912	2420
350.751	2391
356.583	2405
362.408	2401
368.227	2418
374.04	2409
379.847	2436
385.647	2418
391.44	2450
397.228	2451
403.009	2460
408.784	2485
414.553	2461
420.315	2486
426.071	2477
431.821	2480
437.565	2477
443.302	2477
449.033	2465
454.758	2463
460.477	2462
466.189	2434
471.896	2410
477.596	2426
483.29	2415
488.978	2389
494.66	2397
500.335	2352
506.005	2307
511.668	2225
517.325	2182
522.977	2141
528.622	2122
534.261	2077
539.894	2061
545.521	2064
551.141	2026
556.756	2016
562.365	2008
567.968	2005
573.565	1983
579.155	1981
584.74	1972
590.319	1954
595.892	1966
601.459	1940
607.02	1936
612.575	1921
618.124	1898
623.667	1874
629.204	1884
634.735	1848
640.261	1855
645.781	1844
651.294	1829
656.802	1819
662.304	1835
667.8	1805
673.29	1834
678.775	1816
684.254	1817
689.726	1797
695.193	1790
700.655	1787
706.11	1752
711.56	1780
717.004	1752
722.442	1742
727.874	1736
733.301	1730
738.722	1730
744.137	1725
749.547	1725
754.951	1700
760.349	1716
765.741	1704
771.128	1717
776.509	1739
781.885	1759
787.254	1740
792.618	1748
797.977	1721
803.33	1699
808.677	1690
814.019	1707
819.355	1682
824.686	1661
830.011	1669
835.33	1660
840.644	1646
845.952	1662
851.255	1652
856.552	1641
861.844	1626
867.13	1622
872.41	1626
877.686	1616
882.955	1608
888.219	1601
893.478	1586
898.731	1559
903.979	1538
909.221	1512
914.458	1534
919.69	1512
924.916	1512
930.136	1520
935.351	1535
940.561	1525
945.766	1515
950.965	1517
956.158	1517
961.347	1483
966.529	1461
971.707	1420
976.879	1422
982.046	1412
987.208	1402
992.364	1403
997.515	1409
1002.66	1422
1007.801	1417
1012.936	1454
1018.066	1471
1023.19	1455
1028.309	1458
1033.423	1430
1038.532	1445
1043.636	1413
1048.734	1411
1053.827	1394
1058.915	1381
1063.998	1382
1069.075	1365
1074.147	1370
1079.214	1360
1084.276	1366
1089.333	1370
1094.385	1379
1099.431	1364
1104.472	1359
1109.509	1375
1114.54	1353
1119.565	1343
1124.586	1335
1129.602	1304
1134.613	1297
1139.618	1292
1144.619	1282
1149.614	1302
1154.604	1285
1159.589	1290
1164.57	1277
1169.545	1291
1174.515	1302
1179.48	1277
1184.44	1264
1189.395	1256
1194.345	1244
1199.29	1230
1204.23	1243
1209.165	1256
1214.095	1256
1219.021	1271
1223.941	1278
1228.856	1286
1233.766	1282
1238.672	1284
1243.572	1280
1248.467	1298
1253.358	1251
1258.244	1244
1263.124	1225
1268	1191
1272.871	1181
1277.737	1171
1282.599	1166
1287.455	1181
1292.306	1158
1297.153	1175
1301.995	1190
1306.832	1185
1311.664	1205
1316.491	1204
1321.314	1206
1326.132	1196
1330.945	1176
1335.753	1164
1340.556	1135
1345.354	1121
1350.148	1094
1354.937	1066
1359.722	1037
1364.501	1019
1369.276	992
1374.046	950
1378.811	958
1383.572	939
1388.327	945
1393.079	953
1397.825	962
1402.567	972
1407.304	978
1412.036	982
1416.764	974
1421.487	992
1426.205	986
1430.919	998
1435.628	990
1440.333	1014
1445.032	1004
1449.727	1011
1454.418	1032
1459.104	1016
1463.785	998
1468.462	986
1473.134	957
1477.802	934
1482.465	915
1487.123	907
1491.777	871
1496.426	860
1501.071	855
1505.711	838
1510.347	829
1514.978	827
1519.604	808
1524.226	827
1528.844	798
1533.457	795
1538.065	803
1542.669	801
1547.269	795
1551.864	807
1556.454	809
1561.041	826
1565.622	831
1570.199	843
1574.772	840
1579.34	862
1583.904	888
1588.464	897
1593.019	882
1597.569	905
1602.115	892
1606.657	895
1611.195	891
1615.728	887
1620.256	880
1624.78	876
1629.3	880
1633.816	880
1638.327	905
1642.834	892
1647.336	880
1651.834	889
1656.328	895
1660.817	874
1665.302	876
1669.783	862
1674.259	843
1678.732	811
1683.199	780
1687.663	755
1692.122	713
1696.577	675
1701.028	655
1705.474	600
1709.917	591
1714.355	567
1718.788	569
1723.218	572
1727.643	586
1732.064	576
1736.481	570
1740.893	554
1745.301	554
1749.705	538
1754.105	540
1758.501	526
1762.893	515
1767.28	498
1771.663	495
1776.042	489
1780.417	479
1784.787	474
1789.154	470
1793.516	446
1797.874	436
1802.228	435
1806.578	415
1810.924	419
1815.266	403
1819.603	424
1823.937	433
1828.266	421
1832.591	429
1836.913	428
1841.23	431
1845.543	422
1849.852	445
1854.156	430
1858.457	442
1862.754	456
1867.047	450
1871.335	442
1875.62	444
1879.9	435
1884.177	439
1888.449	432
1892.718	431
1896.982	415
1901.243	402
1905.499	401
1909.752	384
1914	377
1918.245	361
1922.485	360
1926.722	353
1930.954	353
1935.183	359
1939.408	356
1943.628	341
1947.845	337
1952.058	334
1956.267	331
1960.472	337
1964.673	323
1968.87	325
1973.063	316
1977.252	327
1981.438	326
1985.619	325
1989.797	322
1993.971	331
1998.14	340
2002.306	332
2006.469	340
2010.627	335
2014.781	338
2018.932	339
2023.078	340
2027.221	328
2031.36	341
2035.495	336
2039.627	326
2043.754	322
2047.878	322
2051.998	316
2056.114	312
2060.226	310
2064.334	305
2068.439	303
2072.54	300
2076.637	302
2080.73	300
2084.82	301
2088.906	287
2092.988	282
2097.066	287
2101.14	279
2105.211	274
2109.278	264
2113.342	257
2117.401	265
2121.457	254
2125.509	254
2129.558	253
2133.602	261
2137.643	266
2141.681	256
2145.714	268
2149.744	263
2153.77	266
2157.793	263
2161.812	271
2165.827	266
2169.838	262
2173.846	257
2177.851	256
2181.851	247
2185.848	257
2189.841	248
2193.831	240
2197.817	250
2201.799	244
2205.778	235
2209.753	246
2213.725	250
2217.693	252
2221.657	245
2225.618	236
2229.575	229
2233.529	240
2237.479	242
2241.425	237
2245.368	234
2249.307	229
2253.243	227
2257.175	214
2261.104	226
2265.029	221
2268.95	215
2272.868	211
2276.783	207
2280.694	206
2284.601	204
2288.505	208
2292.405	209
2296.302	208
2300.195	202
2304.085	188
2307.971	189
2311.854	185
2315.734	184
2319.609	187
2323.482	182
2327.351	188
2331.216	191
2335.078	205
2338.937	195
2342.792	192
2346.643	192
2350.492	184
2354.336	186
2358.178	177
2362.015	193
2365.85	185
2369.681	190
2373.508	187
2377.333	189
2381.153	189
2384.971	182
2388.785	180
2392.595	187
2396.402	190
2400.206	187
2404.007	190
2407.804	187
2411.597	178
2415.388	189
2419.174	186
2422.958	185
2426.738	182
2430.515	188
2434.289	181
2438.059	177
2441.825	176
2445.589	176
2449.349	167
2453.106	173
2456.859	161
2460.61	158
2464.356	161
2468.1	155
2471.84	155
2475.577	155
2479.311	150
2483.041	164
2486.768	158
2490.492	154
2494.213	152
2497.93	149
2501.644	148
2505.355	151
2509.062	139
2512.766	145
2516.467	136
2520.165	138
2523.859	135
2527.551	131
2531.239	125
2534.923	125
2538.605	126
2542.283	124
2545.958	129
2549.63	123
2553.299	123
2556.964	118
2560.626	117
2564.285	115
2567.941	111
2571.594	112
2575.243	121
2578.89	114
2582.533	98
2586.173	109
2589.809	111
2593.443	112
2597.073	100
2600.701	111
2604.325	98
2607.946	90
2611.564	103
2615.178	97
2618.79	97
2622.398	106
2626.004	97
2629.606	91
2633.205	99
2636.801	100
2640.394	104
2643.983	93
2647.57	97
2651.153	89
2654.734	89
2658.311	90
2661.885	89
2665.456	96
2669.025	98
2672.589	84
2676.151	87
2679.71	77
2683.266	87
2686.819	85
2690.368	82
2693.915	86
2697.458	78
2700.999	84
2704.536	80
2708.071	78
2711.602	63
2715.13	65
2718.656	75
2722.178	62
2725.697	67
2729.214	66
2732.727	75
2736.237	68
2739.744	55
2743.249	62
2746.75	58
2750.248	51
2753.743	43
2757.236	53
2760.725	48
2764.211	42
2767.695	39
2771.175	39
2774.652	38
2778.127	48
2781.598	40
2785.067	43
2788.532	43
2791.995	48
2795.455	44
2798.911	48
2802.365	52
2805.816	48
2809.264	47
2812.709	49
2816.151	47
2819.59	50
2823.026	50
2826.46	49
2829.89	42
2833.318	45
2836.742	56
2840.164	48
2843.583	49
2846.999	55
2850.412	48
2853.822	52
2857.229	58
2860.634	56
2864.035	54
2867.434	56
2870.83	61
2874.223	64
2877.613	68
2881	68
2884.385	64
2887.766	72
2891.145	71
2894.521	63
2897.894	66
2901.264	69
2904.631	63
2907.996	73
2911.358	75
2914.717	68
2918.073	78
2921.426	75
2924.777	85
2928.124	82
2931.469	85
2934.811	96
2938.15	100
2941.487	102
2944.821	95
2948.152	100
2951.48	95
2954.805	91
2958.128	93
2961.447	88
2964.765	83
2968.079	86
2971.39	85
2974.699	80
2978.005	90
2981.308	89
2984.609	91
2987.907	90
2991.202	80
2994.494	90
2997.784	85
3001.07	87
3004.355	96
3007.636	94
3010.915	92
3014.191	91
3017.464	93
3020.734	100
3024.002	97
3027.267	101
3030.53	96
3033.789	104
3037.046	102
3040.301	113
3043.552	126
3046.801	123
3050.048	128
3053.291	129
3056.532	142
3059.771	145
3063.006	147
3066.239	155
3069.469	157
3072.697	164
3075.922	164
3079.144	163
3082.364	169
3085.581	178
3088.795	187
3092.007	188
3095.216	187
3098.423	192
3101.627	185
3104.828	206
3108.026	205
3111.222	214
3114.416	210
3117.607	214
3120.795	218
3123.98	224
3127.163	236
3130.344	235
3133.521	242
3136.696	249
3139.869	264
3143.039	252
3146.206	267
3149.371	265
3152.533	280
3155.693	263
3158.85	268
3162.005	270
3165.157	263
3168.306	278
3171.453	268
3174.597	269
3177.739	280
3180.878	277
3184.014	271
3187.149	282
3190.28	284
3193.409	281
3196.536	281
3199.659	288
3202.781	292
3205.9	284
3209.016	284
3212.13	288
3215.241	289
3218.35	284
3221.456	280
3224.56	267
3227.661	264
3230.76	266
3233.856	260
3236.95	250
3240.041	251
3243.13	248
3246.216	240
3249.3	235
3252.382	237
3255.46	234
3258.537	231
3261.611	230
3264.682	222
3267.751	224
3270.818	211
3273.882	219
3276.943	215
3280.002	223
3283.059	221
3286.113	209
3289.165	213
3292.214	217
3295.261	211
3298.306	201
3301.348	213
3304.387	202
3307.425	200
3310.459	196
3313.492	198
3316.521	190
3319.549	208
3322.574	194
3325.597	198
3328.617	193
3331.635	198
3334.65	209
3337.663	189
3340.674	195
3343.682	199
3346.688	196
3349.691	199
3352.692	197
3355.691	199
3358.687	198
3361.681	191
3364.673	194
3367.662	194
3370.649	182
3373.633	183
3376.615	173
3379.595	173
3382.572	179
3385.547	170
3388.52	161
3391.49	159
3394.458	162
3397.424	161
3400.387	159
3403.348	152
3406.307	150
3409.263	154
3412.217	152
3415.168	150
3418.118	142
3421.065	137
3424.009	138
3426.951	130
3429.891	127
3432.829	138
3435.764	134
3438.697	125
3441.628	106
3444.557	108
3447.483	111
3450.407	98
3453.328	98
3456.247	97
3459.164	96
3462.079	78
3464.991	86
3467.902	78
3470.809	79
3473.715	70
3476.618	68
3479.519	57
3482.418	61
3485.315	54
3488.209	46
3491.101	45
3493.99	50
3496.878	40
3499.763	39
3502.646	44
3505.527	37
3508.405	33
3511.281	28
3514.155	18
3517.027	10
3519.897	21
3522.764	14
3525.629	14
3528.492	5
3531.352	4
3534.211	3
3537.067	2
3539.921	-3
3542.773	-10
3545.622	1
3548.469	-3
3551.315	-9
3554.157	-14
3556.998	-7
3559.837	-16
3562.673	-13
3565.507	-17
3568.339	-16
3571.169	-21
3573.996	-18
3576.822	-35
3579.645	-26
3582.466	-27
3585.285	-27
3588.101	-35
3590.916	-23
3593.728	-39
3596.538	-36
3599.346	-30
3602.152	-29
3604.956	-34
3607.757	-30
3610.556	-38
3613.354	-41
3616.149	-43
3618.942	-38
3621.732	-41
3624.521	-39
3627.307	-44
3630.092	-49
3632.874	-48
3635.654	-48
3638.432	-43
3641.208	-46
3643.982	-45
3646.753	-50
3649.523	-50
3652.29	-51
3655.055	-46
3657.818	-54
3660.579	-56
3663.338	-47
3666.095	-51
3668.849	-51
3671.602	-49
3674.352	-48
3677.101	-48
3679.847	-52
3682.591	-51
3685.333	-55
3688.073	-62
3690.811	-54
3693.547	-59
3696.281	-57
3699.013	-59
3701.742	-59
3704.47	-52
3707.195	-59
3709.919	-62
3712.64	-56
3715.359	-62
3718.076	-61
3720.792	-64
3723.505	-62
3726.216	-55
3728.925	-64
3731.632	-59
3734.336	-56
3737.039	-61
3739.74	-60
3742.439	-67
3745.136	-64
3747.83	-64
3750.523	-67
3753.213	-65
3755.902	-63
3758.589	-65
3761.273	-61
3763.956	-67
3766.636	-63
3769.315	-59
3771.991	-64
3774.665	-64
3777.338	-62
3780.008	-69
3782.677	-61
3785.343	-62
3788.007	-62
3790.67	-65
3793.33	-63
3795.989	-65
3798.645	-67
3801.299	-65
3803.952	-67
3806.602	-64
3809.251	-68
3811.897	-70
3814.542	-74
3817.184	-69
3819.825	-63
3822.463	-65
3825.1	-63
3827.735	-71
3830.367	-68
3832.998	-68
3835.627	-65
3838.253	-58
3840.878	-57
3843.501	-59
3846.122	-65
3848.741	-70
3851.358	-65
3853.973	-58
3856.586	-64
3859.197	-71
3861.806	-66
3864.414	-70
3867.019	-69
3869.622	-63
3872.224	-55
3874.823	-43
3877.421	-43
3880.016	-25
3882.61	-7
3885.202	-9
3887.792	-16
3890.38	-40
3892.966	-50
3895.55	-56
3898.132	-58
3900.713	-66
3903.291	-69
3905.868	-62
3908.442	-67
3911.015	-69
3913.586	-69
3916.155	-72
3918.722	-69
3921.287	-70
3923.85	-62
3926.411	-67
3928.971	-81
3931.528	-71
3934.084	-65
3936.638	-62
3939.19	-73
3941.74	-61
3944.288	-71
3946.834	-65
3949.378	-65
3951.921	-71
3954.462	-69
3957	-63
3959.537	-59
3962.072	-66
3964.606	-67
3967.137	-66
3969.667	-70
3972.194	-68
3974.72	-64
3977.244	-62
3979.766	-66
3982.286	-70
3984.805	-73
3987.321	-62
3989.836	-62
3992.349	-71
3994.86	-67
3997.369	-65
3999.877	-63
4002.382	-66
4004.886	-62
4007.388	-66
4009.888	-66
4012.386	-69
4014.883	-65
4017.377	-62
4019.87	-68
4022.361	-69
4024.85	-67
4027.338	-70
4029.823	-68
4032.307	-68
4034.789	-58
4037.269	-66
4039.747	-65
4042.224	-68
4044.699	-65
4047.172	-70
4049.643	-66
4052.112	-63
4054.58	-62
4057.046	-65
4059.51	-67
4061.972	-73
4064.432	-66
4066.891	-63
4069.348	-68
4071.803	-57
4074.256	-72
4076.708	-66
4079.158	-65
4081.606	-66
4084.052	-67
4086.497	-66
4088.939	-60
4091.38	-70
4093.819	-70
4096.257	-70
4098.693	-69
4101.127	-64
4103.559	-69
4105.989	-5
4108.418	-5
4110.845	-5
4113.27	-8
4115.694	1
4118.115	7
4120.535	-68
4122.954	-61
4125.37	-69
4127.785	-66
4130.198	-62
4132.609	-68
4135.019	-71
4137.427	-74
4139.833	-71
4142.237	-72
