Data from 2018-3-7_conc=2_n=6_RamanShift_02.txt Node
Date: Wed Mar 07 10:54:52 IST 2018
User: aro
Spectrometer: QEPB0276
Trigger mode: 0
Integration Time (sec): 3.000000E1
Scans to average: 1
Electric dark correction enabled: true
Nonlinearity correction enabled: false
Boxcar width: 0
XAxis mode: Raman Shifts
Number of Pixels in Spectrum: 1044
>>>>>Begin Spectral Data<<<<<
160.701	16
166.742	28
172.777	51
178.805	150
184.826	373
190.841	770
196.849	1278
202.85	1651
208.845	1806
214.833	1809
220.815	1787
226.789	1784
232.758	1773
238.719	1809
244.674	1792
250.623	1801
256.565	1772
262.5	1749
268.429	1744
274.351	1732
280.267	1733
286.176	1718
292.079	1730
297.975	1724
303.865	1742
309.748	1732
315.625	1725
321.495	1733
327.359	1747
333.217	1752
339.068	1752
344.912	1785
350.751	1757
356.583	1751
362.408	1769
368.227	1773
374.04	1788
379.847	1796
385.647	1798
391.44	1829
397.228	1812
403.009	1831
408.784	1840
414.553	1831
420.315	1863
426.071	1848
431.821	1838
437.565	1851
443.302	1840
449.033	1840
454.758	1831
460.477	1817
466.189	1785
471.896	1783
477.596	1753
483.29	1751
488.978	1768
494.66	1750
500.335	1710
506.005	1638
511.668	1572
517.325	1506
522.977	1453
528.622	1403
534.261	1370
539.894	1343
545.521	1322
551.141	1319
556.756	1301
562.365	1280
567.968	1280
573.565	1273
579.155	1251
584.74	1252
590.319	1256
595.892	1258
601.459	1244
607.02	1251
612.575	1242
618.124	1208
623.667	1201
629.204	1181
634.735	1184
640.261	1170
645.781	1165
651.294	1152
656.802	1156
662.304	1158
667.8	1132
673.29	1144
678.775	1136
684.254	1130
689.726	1117
695.193	1115
700.655	1111
706.11	1093
711.56	1091
717.004	1096
722.442	1093
727.874	1092
733.301	1077
738.722	1069
744.137	1073
749.547	1066
754.951	1067
760.349	1067
765.741	1077
771.128	1066
776.509	1098
781.885	1105
787.254	1123
792.618	1111
797.977	1111
803.33	1090
808.677	1087
814.019	1092
819.355	1086
824.686	1074
830.011	1061
835.33	1072
840.644	1056
845.952	1050
851.255	1041
856.552	1042
861.844	1024
867.13	1015
872.41	1010
877.686	1003
882.955	1007
888.219	1001
893.478	962
898.731	953
903.979	951
909.221	938
914.458	938
919.69	932
924.916	933
930.136	930
935.351	943
940.561	931
945.766	922
950.965	917
956.158	902
961.347	891
966.529	899
971.707	878
976.879	860
982.046	861
987.208	862
992.364	848
997.515	870
1002.66	864
1007.801	880
1012.936	880
1018.066	888
1023.19	895
1028.309	886
1033.423	881
1038.532	881
1043.636	881
1048.734	877
1053.827	865
1058.915	854
1063.998	849
1069.075	839
1074.147	842
1079.214	843
1084.276	851
1089.333	842
1094.385	864
1099.431	839
1104.472	843
1109.509	833
1114.54	822
1119.565	801
1124.586	813
1129.602	790
1134.613	795
1139.618	787
1144.619	791
1149.614	792
1154.604	777
1159.589	782
1164.57	788
1169.545	786
1174.515	784
1179.48	783
1184.44	778
1189.395	770
1194.345	772
1199.29	760
1204.23	756
1209.165	773
1214.095	780
1219.021	761
1223.941	781
1228.856	775
1233.766	782
1238.672	784
1243.572	775
1248.467	783
1253.358	766
1258.244	752
1263.124	732
1268	733
1272.871	726
1277.737	712
1282.599	713
1287.455	707
1292.306	709
1297.153	710
1301.995	712
1306.832	721
1311.664	722
1316.491	724
1321.314	717
1326.132	712
1330.945	700
1335.753	684
1340.556	674
1345.354	655
1350.148	635
1354.937	621
1359.722	611
1364.501	608
1369.276	592
1374.046	586
1378.811	584
1383.572	586
1388.327	585
1393.079	576
1397.825	586
1402.567	586
1407.304	590
1412.036	594
1416.764	590
1421.487	592
1426.205	585
1430.919	585
1435.628	600
1440.333	605
1445.032	599
1449.727	611
1454.418	617
1459.104	619
1463.785	590
1468.462	579
1473.134	565
1477.802	559
1482.465	535
1487.123	521
1491.777	519
1496.426	515
1501.071	509
1505.711	499
1510.347	500
1514.978	491
1519.604	496
1524.226	503
1528.844	495
1533.457	486
1538.065	488
1542.669	491
1547.269	481
1551.864	482
1556.454	497
1561.041	506
1565.622	509
1570.199	508
1574.772	517
1579.34	511
1583.904	522
1588.464	534
1593.019	534
1597.569	537
1602.115	537
1606.657	526
1611.195	529
1615.728	523
1620.256	506
1624.78	516
1629.3	514
1633.816	534
1638.327	518
1642.834	519
1647.336	508
1651.834	521
1656.328	524
1660.817	522
1665.302	507
1669.783	494
1674.259	490
1678.732	484
1683.199	457
1687.663	445
1692.122	419
1696.577	405
1701.028	396
1705.474	364
1709.917	364
1714.355	362
1718.788	355
1723.218	351
1727.643	348
1732.064	354
1736.481	356
1740.893	338
1745.301	337
1749.705	338
1754.105	326
1758.501	309
1762.893	298
1767.28	300
1771.663	290
1776.042	296
1780.417	285
1784.787	285
1789.154	271
1793.516	268
1797.874	268
1802.228	269
1806.578	270
1810.924	264
1815.266	263
1819.603	261
1823.937	265
1828.266	264
1832.591	265
1836.913	262
1841.23	263
1845.543	259
1849.852	270
1854.156	270
1858.457	268
1862.754	272
1867.047	270
1871.335	264
1875.62	260
1879.9	260
1884.177	256
1888.449	253
1892.718	254
1896.982	247
1901.243	228
1905.499	241
1909.752	239
1914	227
1918.245	225
1922.485	222
1926.722	219
1930.954	223
1935.183	216
1939.408	217
1943.628	211
1947.845	220
1952.058	209
1956.267	206
1960.472	215
1964.673	202
1968.87	206
1973.063	203
1977.252	208
1981.438	208
1985.619	199
1989.797	198
1993.971	200
1998.14	207
2002.306	195
2006.469	210
2010.627	211
2014.781	210
2018.932	205
2023.078	205
2027.221	199
2031.36	208
2035.495	194
2039.627	186
2043.754	187
2047.878	180
2051.998	189
2056.114	187
2060.226	176
2064.334	177
2068.439	171
2072.54	180
2076.637	183
2080.73	171
2084.82	181
2088.906	165
2092.988	165
2097.066	164
2101.14	161
2105.211	170
2109.278	161
2113.342	160
2117.401	162
2121.457	157
2125.509	162
2129.558	157
2133.602	148
2137.643	152
2141.681	147
2145.714	150
2149.744	154
2153.77	149
2157.793	161
2161.812	168
2165.827	153
2169.838	142
2173.846	146
2177.851	145
2181.851	147
2185.848	145
2189.841	138
2193.831	139
2197.817	137
2201.799	142
2205.778	134
2209.753	133
2213.725	131
2217.693	133
2221.657	140
2225.618	137
2229.575	132
2233.529	132
2237.479	135
2241.425	128
2245.368	130
2249.307	136
2253.243	123
2257.175	128
2261.104	118
2265.029	123
2268.95	125
2272.868	114
2276.783	122
2280.694	103
2284.601	107
2288.505	110
2292.405	113
2296.302	116
2300.195	104
2304.085	101
2307.971	110
2311.854	103
2315.734	96
2319.609	102
2323.482	102
2327.351	103
2331.216	111
2335.078	127
2338.937	122
2342.792	100
2346.643	100
2350.492	104
2354.336	109
2358.178	96
2362.015	98
2365.85	104
2369.681	105
2373.508	101
2377.333	103
2381.153	104
2384.971	94
2388.785	95
2392.595	93
2396.402	104
2400.206	92
2404.007	101
2407.804	100
2411.597	91
2415.388	94
2419.174	94
2422.958	91
2426.738	87
2430.515	92
2434.289	99
2438.059	94
2441.825	84
2445.589	94
2449.349	88
2453.106	93
2456.859	79
2460.61	82
2464.356	85
2468.1	78
2471.84	78
2475.577	76
2479.311	72
2483.041	75
2486.768	73
2490.492	84
2494.213	73
2497.93	83
2501.644	77
2505.355	69
2509.062	67
2512.766	72
2516.467	61
2520.165	64
2523.859	66
2527.551	56
2531.239	64
2534.923	58
2538.605	64
2542.283	53
2545.958	67
2549.63	58
2553.299	58
2556.964	54
2560.626	56
2564.285	56
2567.941	54
2571.594	48
2575.243	53
2578.89	53
2582.533	43
2586.173	50
2589.809	53
2593.443	55
2597.073	52
2600.701	54
2604.325	45
2607.946	36
2611.564	50
2615.178	48
2618.79	43
2622.398	38
2626.004	43
2629.606	42
2633.205	37
2636.801	44
2640.394	47
2643.983	41
2647.57	41
2651.153	32
2654.734	39
2658.311	44
2661.885	32
2665.456	44
2669.025	36
2672.589	32
2676.151	39
2679.71	35
2683.266	30
2686.819	37
2690.368	31
2693.915	33
2697.458	34
2700.999	32
2704.536	35
2708.071	33
2711.602	23
2715.13	23
2718.656	28
2722.178	18
2725.697	18
2729.214	26
2732.727	28
2736.237	27
2739.744	23
2743.249	17
2746.75	18
2750.248	20
2753.743	14
2757.236	10
2760.725	17
2764.211	9
2767.695	9
2771.175	15
2774.652	8
2778.127	19
2781.598	13
2785.067	12
2788.532	5
2791.995	19
2795.455	9
2798.911	9
2802.365	17
2805.816	11
2809.264	12
2812.709	11
2816.151	19
2819.59	22
2823.026	10
2826.46	19
2829.89	19
2833.318	14
2836.742	17
2840.164	15
2843.583	8
2846.999	21
2850.412	13
2853.822	23
2857.229	17
2860.634	16
2864.035	16
2867.434	21
2870.83	23
2874.223	29
2877.613	20
2881	22
2884.385	26
2887.766	28
2891.145	27
2894.521	36
2897.894	26
2901.264	24
2904.631	21
2907.996	30
2911.358	29
2914.717	25
2918.073	30
2921.426	25
2924.777	34
2928.124	32
2931.469	30
2934.811	47
2938.15	45
2941.487	42
2944.821	42
2948.152	46
2951.48	40
2954.805	45
2958.128	36
2961.447	35
2964.765	34
2968.079	32
2971.39	31
2974.699	32
2978.005	37
2981.308	36
2984.609	30
2987.907	34
2991.202	39
2994.494	33
2997.784	33
3001.07	41
3004.355	36
3007.636	41
3010.915	39
3014.191	37
3017.464	42
3020.734	36
3024.002	44
3027.267	42
3030.53	43
3033.789	39
3037.046	41
3040.301	49
3043.552	53
3046.801	53
3050.048	49
3053.291	55
3056.532	59
3059.771	52
3063.006	66
3066.239	65
3069.469	70
3072.697	77
3075.922	79
3079.144	80
3082.364	77
3085.581	80
3088.795	80
3092.007	86
3095.216	93
3098.423	84
3101.627	82
3104.828	104
3108.026	93
3111.222	99
3114.416	102
3117.607	102
3120.795	105
3123.98	100
3127.163	116
3130.344	110
3133.521	122
3136.696	120
3139.869	125
3143.039	127
3146.206	127
3149.371	122
3152.533	136
3155.693	132
3158.85	131
3162.005	135
3165.157	137
3168.306	143
3171.453	137
3174.597	136
3177.739	141
3180.878	137
3184.014	133
3187.149	130
3190.28	130
3193.409	135
3196.536	128
3199.659	137
3202.781	142
3205.9	128
3209.016	139
3212.13	132
3215.241	143
3218.35	136
3221.456	136
3224.56	131
3227.661	130
3230.76	125
3233.856	123
3236.95	122
3240.041	116
3243.13	118
3246.216	113
3249.3	114
3252.382	117
3255.46	116
3258.537	112
3261.611	110
3264.682	107
3267.751	107
3270.818	86
3273.882	92
3276.943	95
3280.002	100
3283.059	112
3286.113	102
3289.165	101
3292.214	93
3295.261	99
3298.306	93
3301.348	95
3304.387	90
3307.425	86
3310.459	84
3313.492	90
3316.521	93
3319.549	94
3322.574	91
3325.597	85
3328.617	87
3331.635	93
3334.65	91
3337.663	77
3340.674	80
3343.682	88
3346.688	85
3349.691	84
3352.692	89
3355.691	87
3358.687	82
3361.681	83
3364.673	84
3367.662	90
3370.649	84
3373.633	77
3376.615	79
3379.595	79
3382.572	65
3385.547	75
3388.52	68
3391.49	66
3394.458	59
3397.424	65
3400.387	69
3403.348	63
3406.307	60
3409.263	61
3412.217	58
3415.168	61
3418.118	59
3421.065	52
3424.009	43
3426.951	52
3429.891	50
3432.829	52
3435.764	52
3438.697	55
3441.628	40
3444.557	42
3447.483	33
3450.407	31
3453.328	34
3456.247	34
3459.164	24
3462.079	18
3464.991	28
3467.902	20
3470.809	22
3473.715	24
3476.618	15
3479.519	9
3482.418	15
3485.315	11
3488.209	1
3491.101	-4
3493.99	3
3496.878	3
3499.763	-2
3502.646	-2
3505.527	-4
3508.405	-3
3511.281	-9
3514.155	-5
3517.027	-10
3519.897	-10
3522.764	-15
3525.629	-16
3528.492	-23
3531.352	-19
3534.211	-21
3537.067	-21
3539.921	-17
3542.773	-21
3545.622	-17
3548.469	-21
3551.315	-21
3554.157	-29
3556.998	-29
3559.837	-34
3562.673	-36
3565.507	-29
3568.339	-21
3571.169	-35
3573.996	-31
3576.822	-37
3579.645	-34
3582.466	-35
3585.285	-35
3588.101	-37
3590.916	-33
3593.728	-39
3596.538	-39
3599.346	-42
3602.152	-38
3604.956	-39
3607.757	-36
3610.556	-38
3613.354	-40
3616.149	-43
3618.942	-42
3621.732	-45
3624.521	-41
3627.307	-40
3630.092	-46
3632.874	-43
3635.654	-45
3638.432	-47
3641.208	-44
3643.982	-39
3646.753	-46
3649.523	-43
3652.29	-53
3655.055	-43
3657.818	-50
3660.579	-48
3663.338	-46
3666.095	-51
3668.849	-51
3671.602	-48
3674.352	-41
3677.101	-48
3679.847	-44
3682.591	-52
3685.333	-50
3688.073	-57
3690.811	-56
3693.547	-56
3696.281	-49
3699.013	-48
3701.742	-51
3704.47	-49
3707.195	-48
3709.919	-51
3712.64	-50
3715.359	-55
3718.076	-54
3720.792	-55
3723.505	-60
3726.216	-52
3728.925	-62
3731.632	-54
3734.336	-58
3737.039	-51
3739.74	-58
3742.439	-56
3745.136	-58
3747.83	-48
3750.523	-56
3753.213	-66
3755.902	-56
3758.589	-60
3761.273	-58
3763.956	-59
3766.636	-51
3769.315	-51
3771.991	-55
3774.665	-58
3777.338	-51
3780.008	-58
3782.677	-62
3785.343	-56
3788.007	-53
3790.67	-64
3793.33	-57
3795.989	-62
3798.645	-62
3801.299	-55
3803.952	-54
3806.602	-59
3809.251	-59
3811.897	-55
3814.542	-59
3817.184	-55
3819.825	-53
3822.463	-57
3825.1	-60
3827.735	-66
3830.367	-60
3832.998	-62
3835.627	-56
3838.253	-52
3840.878	-52
3843.501	-52
3846.122	-56
3848.741	-55
3851.358	-60
3853.973	-57
3856.586	-55
3859.197	-61
3861.806	-55
3864.414	-63
3867.019	-61
3869.622	-52
3872.224	-44
3874.823	-37
3877.421	-31
3880.016	-12
3882.61	3
3885.202	1
3887.792	-3
3890.38	-23
3892.966	-46
3895.55	-53
3898.132	-56
3900.713	-59
3903.291	-62
3905.868	-55
3908.442	-58
3911.015	-57
3913.586	-66
3916.155	-58
3918.722	-60
3921.287	-57
3923.85	-56
3926.411	-64
3928.971	-66
3931.528	-60
3934.084	-57
3936.638	-53
3939.19	-60
3941.74	-56
3944.288	-62
3946.834	-54
3949.378	-55
3951.921	-61
3954.462	-57
3957	-52
3959.537	-52
3962.072	-58
3964.606	-56
3967.137	-55
3969.667	-61
3972.194	-59
3974.72	-48
3977.244	-54
3979.766	-62
3982.286	-61
3984.805	-72
3987.321	-61
3989.836	-55
3992.349	-59
3994.86	-61
3997.369	-61
3999.877	-65
4002.382	-55
4004.886	-57
4007.388	-57
4009.888	-54
4012.386	-51
4014.883	-55
4017.377	-55
4019.87	-56
4022.361	-57
4024.85	-53
4027.338	-58
4029.823	-60
4032.307	-61
4034.789	-60
4037.269	-58
4039.747	-58
4042.224	-60
4044.699	-61
4047.172	-58
4049.643	-55
4052.112	-55
4054.58	-59
4057.046	-56
4059.51	-61
4061.972	-59
4064.432	-59
4066.891	-54
4069.348	-59
4071.803	-53
4074.256	-59
4076.708	-57
4079.158	-63
4081.606	-54
4084.052	-55
4086.497	-53
4088.939	-58
4091.38	-60
4093.819	-66
4096.257	-58
4098.693	-59
4101.127	-55
4103.559	-62
4105.989	24
4108.418	16
4110.845	12
4113.27	13
4115.694	13
4118.115	19
4120.535	-57
4122.954	-58
4125.37	-59
4127.785	-54
4130.198	-53
4132.609	-56
4135.019	-62
4137.427	-62
4139.833	-60
4142.237	-61
