Data from 2018-3-7_conc=6_n=4_RamanShift_01.txt Node
Date: Wed Mar 07 13:05:52 IST 2018
User: aro
Spectrometer: QEPB0276
Trigger mode: 0
Integration Time (sec): 3.000000E1
Scans to average: 1
Electric dark correction enabled: true
Nonlinearity correction enabled: false
Boxcar width: 0
XAxis mode: Raman Shifts
Number of Pixels in Spectrum: 1044
>>>>>Begin Spectral Data<<<<<
160.701	14
166.742	22
172.777	55
178.805	162
184.826	422
190.841	894
196.849	1492
202.85	1968
208.845	2159
214.833	2155
220.815	2114
226.789	2131
232.758	2142
238.719	2132
244.674	2087
250.623	2088
256.565	2058
262.5	2029
268.429	2004
274.351	1993
280.267	1966
286.176	1954
292.079	1954
297.975	1944
303.865	1948
309.748	1934
315.625	1940
321.495	1922
327.359	1919
333.217	1941
339.068	1947
344.912	1938
350.751	1926
356.583	1932
362.408	1929
368.227	1950
374.04	1963
379.847	1963
385.647	1962
391.44	1970
397.228	1975
403.009	1974
408.784	2013
414.553	2003
420.315	1997
426.071	2009
431.821	2000
437.565	1994
443.302	1999
449.033	2006
454.758	1990
460.477	1976
466.189	1978
471.896	1940
477.596	1930
483.29	1943
488.978	1926
494.66	1907
500.335	1877
506.005	1842
511.668	1773
517.325	1739
522.977	1674
528.622	1653
534.261	1618
539.894	1584
545.521	1575
551.141	1561
556.756	1557
562.365	1554
567.968	1553
573.565	1539
579.155	1548
584.74	1513
590.319	1506
595.892	1521
601.459	1490
607.02	1494
612.575	1500
618.124	1467
623.667	1456
629.204	1444
634.735	1436
640.261	1421
645.781	1415
651.294	1410
656.802	1406
662.304	1395
667.8	1400
673.29	1399
678.775	1398
684.254	1381
689.726	1376
695.193	1361
700.655	1372
706.11	1347
711.56	1357
717.004	1345
722.442	1326
727.874	1320
733.301	1339
738.722	1319
744.137	1312
749.547	1322
754.951	1318
760.349	1315
765.741	1326
771.128	1326
776.509	1322
781.885	1336
787.254	1352
792.618	1347
797.977	1339
803.33	1320
808.677	1327
814.019	1307
819.355	1316
824.686	1274
830.011	1297
835.33	1275
840.644	1266
845.952	1281
851.255	1273
856.552	1278
861.844	1257
867.13	1241
872.41	1251
877.686	1243
882.955	1235
888.219	1217
893.478	1207
898.731	1187
903.979	1177
909.221	1167
914.458	1152
919.69	1149
924.916	1167
930.136	1153
935.351	1156
940.561	1165
945.766	1169
950.965	1163
956.158	1148
961.347	1133
966.529	1124
971.707	1105
976.879	1087
982.046	1087
987.208	1083
992.364	1080
997.515	1076
1002.66	1077
1007.801	1095
1012.936	1118
1018.066	1103
1023.19	1108
1028.309	1116
1033.423	1106
1038.532	1113
1043.636	1100
1048.734	1084
1053.827	1062
1058.915	1055
1063.998	1037
1069.075	1053
1074.147	1057
1079.214	1046
1084.276	1056
1089.333	1067
1094.385	1064
1099.431	1044
1104.472	1064
1109.509	1039
1114.54	1034
1119.565	1011
1124.586	1004
1129.602	984
1134.613	987
1139.618	985
1144.619	979
1149.614	989
1154.604	975
1159.589	1001
1164.57	989
1169.545	982
1174.515	992
1179.48	977
1184.44	981
1189.395	981
1194.345	957
1199.29	955
1204.23	954
1209.165	951
1214.095	968
1219.021	961
1223.941	981
1228.856	974
1233.766	984
1238.672	987
1243.572	967
1248.467	976
1253.358	958
1258.244	949
1263.124	937
1268	916
1272.871	899
1277.737	908
1282.599	903
1287.455	902
1292.306	889
1297.153	893
1301.995	905
1306.832	914
1311.664	897
1316.491	924
1321.314	917
1326.132	912
1330.945	897
1335.753	888
1340.556	851
1345.354	845
1350.148	822
1354.937	816
1359.722	784
1364.501	771
1369.276	753
1374.046	743
1378.811	738
1383.572	741
1388.327	730
1393.079	733
1397.825	741
1402.567	751
1407.304	745
1412.036	755
1416.764	757
1421.487	756
1426.205	757
1430.919	755
1435.628	765
1440.333	768
1445.032	757
1449.727	773
1454.418	790
1459.104	775
1463.785	769
1468.462	752
1473.134	725
1477.802	707
1482.465	703
1487.123	679
1491.777	651
1496.426	658
1501.071	658
1505.711	644
1510.347	636
1514.978	633
1519.604	632
1524.226	628
1528.844	623
1533.457	608
1538.065	614
1542.669	624
1547.269	607
1551.864	625
1556.454	627
1561.041	638
1565.622	649
1570.199	640
1574.772	645
1579.34	659
1583.904	672
1588.464	676
1593.019	678
1597.569	697
1602.115	694
1606.657	689
1611.195	680
1615.728	682
1620.256	658
1624.78	681
1629.3	676
1633.816	680
1638.327	683
1642.834	680
1647.336	675
1651.834	680
1656.328	673
1660.817	672
1665.302	665
1669.783	642
1674.259	630
1678.732	608
1683.199	584
1687.663	573
1692.122	540
1696.577	525
1701.028	486
1705.474	464
1709.917	461
1714.355	445
1718.788	440
1723.218	445
1727.643	455
1732.064	441
1736.481	440
1740.893	426
1745.301	431
1749.705	425
1754.105	407
1758.501	392
1762.893	395
1767.28	385
1771.663	376
1776.042	378
1780.417	360
1784.787	364
1789.154	354
1793.516	335
1797.874	336
1802.228	324
1806.578	320
1810.924	319
1815.266	316
1819.603	317
1823.937	327
1828.266	328
1832.591	336
1836.913	323
1841.23	341
1845.543	338
1849.852	335
1854.156	342
1858.457	347
1862.754	341
1867.047	341
1871.335	333
1875.62	337
1879.9	339
1884.177	326
1888.449	324
1892.718	321
1896.982	307
1901.243	301
1905.499	300
1909.752	289
1914	288
1918.245	282
1922.485	279
1926.722	274
1930.954	267
1935.183	280
1939.408	280
1943.628	266
1947.845	261
1952.058	262
1956.267	250
1960.472	253
1964.673	250
1968.87	251
1973.063	248
1977.252	256
1981.438	249
1985.619	247
1989.797	260
1993.971	263
1998.14	248
2002.306	262
2006.469	258
2010.627	254
2014.781	260
2018.932	254
2023.078	267
2027.221	260
2031.36	257
2035.495	251
2039.627	256
2043.754	254
2047.878	246
2051.998	250
2056.114	234
2060.226	232
2064.334	225
2068.439	232
2072.54	227
2076.637	227
2080.73	219
2084.82	216
2088.906	224
2092.988	214
2097.066	214
2101.14	210
2105.211	209
2109.278	208
2113.342	206
2117.401	204
2121.457	190
2125.509	200
2129.558	206
2133.602	200
2137.643	201
2141.681	194
2145.714	204
2149.744	198
2153.77	203
2157.793	199
2161.812	201
2165.827	195
2169.838	198
2173.846	200
2177.851	190
2181.851	189
2185.848	198
2189.841	192
2193.831	178
2197.817	180
2201.799	187
2205.778	185
2209.753	185
2213.725	183
2217.693	191
2221.657	186
2225.618	172
2229.575	175
2233.529	178
2237.479	184
2241.425	170
2245.368	176
2249.307	173
2253.243	168
2257.175	170
2261.104	160
2265.029	166
2268.95	162
2272.868	162
2276.783	159
2280.694	152
2284.601	149
2288.505	154
2292.405	153
2296.302	164
2300.195	148
2304.085	146
2307.971	141
2311.854	136
2315.734	132
2319.609	140
2323.482	141
2327.351	141
2331.216	145
2335.078	151
2338.937	152
2342.792	141
2346.643	145
2350.492	146
2354.336	142
2358.178	141
2362.015	143
2365.85	143
2369.681	139
2373.508	150
2377.333	148
2381.153	143
2384.971	140
2388.785	139
2392.595	141
2396.402	138
2400.206	135
2404.007	136
2407.804	132
2411.597	136
2415.388	130
2419.174	142
2422.958	131
2426.738	134
2430.515	135
2434.289	140
2438.059	141
2441.825	127
2445.589	136
2449.349	129
2453.106	138
2456.859	126
2460.61	126
2464.356	126
2468.1	125
2471.84	123
2475.577	114
2479.311	120
2483.041	116
2486.768	106
2490.492	113
2494.213	110
2497.93	120
2501.644	109
2505.355	103
2509.062	104
2512.766	105
2516.467	101
2520.165	104
2523.859	113
2527.551	100
2531.239	102
2534.923	93
2538.605	92
2542.283	89
2545.958	93
2549.63	86
2553.299	90
2556.964	76
2560.626	88
2564.285	81
2567.941	82
2571.594	88
2575.243	86
2578.89	82
2582.533	71
2586.173	70
2589.809	83
2593.443	82
2597.073	76
2600.701	83
2604.325	69
2607.946	68
2611.564	77
2615.178	70
2618.79	75
2622.398	73
2626.004	73
2629.606	65
2633.205	72
2636.801	63
2640.394	68
2643.983	67
2647.57	58
2651.153	60
2654.734	66
2658.311	67
2661.885	68
2665.456	67
2669.025	70
2672.589	54
2676.151	55
2679.71	59
2683.266	62
2686.819	61
2690.368	61
2693.915	63
2697.458	58
2700.999	58
2704.536	62
2708.071	48
2711.602	52
2715.13	35
2718.656	39
2722.178	46
2725.697	46
2729.214	40
2732.727	47
2736.237	44
2739.744	39
2743.249	40
2746.75	38
2750.248	37
2753.743	37
2757.236	33
2760.725	36
2764.211	29
2767.695	27
2771.175	30
2774.652	29
2778.127	25
2781.598	29
2785.067	26
2788.532	28
2791.995	33
2795.455	23
2798.911	26
2802.365	35
2805.816	30
2809.264	29
2812.709	27
2816.151	36
2819.59	41
2823.026	30
2826.46	29
2829.89	32
2833.318	32
2836.742	40
2840.164	34
2843.583	35
2846.999	39
2850.412	32
2853.822	38
2857.229	38
2860.634	32
2864.035	41
2867.434	36
2870.83	45
2874.223	41
2877.613	41
2881	38
2884.385	52
2887.766	46
2891.145	47
2894.521	45
2897.894	43
2901.264	40
2904.631	38
2907.996	47
2911.358	53
2914.717	49
2918.073	56
2921.426	52
2924.777	56
2928.124	50
2931.469	61
2934.811	65
2938.15	61
2941.487	72
2944.821	67
2948.152	66
2951.48	61
2954.805	65
2958.128	66
2961.447	66
2964.765	62
2968.079	56
2971.39	54
2974.699	47
2978.005	63
2981.308	56
2984.609	61
2987.907	60
2991.202	61
2994.494	57
2997.784	57
3001.07	66
3004.355	68
3007.636	67
3010.915	64
3014.191	61
3017.464	61
3020.734	70
3024.002	76
3027.267	66
3030.53	68
3033.789	69
3037.046	68
3040.301	76
3043.552	82
3046.801	80
3050.048	84
3053.291	86
3056.532	92
3059.771	95
3063.006	102
3066.239	108
3069.469	110
3072.697	125
3075.922	124
3079.144	119
3082.364	124
3085.581	126
3088.795	128
3092.007	132
3095.216	133
3098.423	137
3101.627	137
3104.828	150
3108.026	143
3111.222	152
3114.416	149
3117.607	154
3120.795	157
3123.98	157
3127.163	170
3130.344	170
3133.521	180
3136.696	188
3139.869	179
3143.039	191
3146.206	187
3149.371	189
3152.533	198
3155.693	198
3158.85	204
3162.005	205
3165.157	203
3168.306	201
3171.453	196
3174.597	201
3177.739	201
3180.878	199
3184.014	197
3187.149	205
3190.28	204
3193.409	197
3196.536	206
3199.659	211
3202.781	210
3205.9	204
3209.016	203
3212.13	201
3215.241	202
3218.35	202
3221.456	209
3224.56	189
3227.661	185
3230.76	188
3233.856	190
3236.95	183
3240.041	187
3243.13	185
3246.216	171
3249.3	165
3252.382	171
3255.46	168
3258.537	163
3261.611	161
3264.682	160
3267.751	163
3270.818	152
3273.882	150
3276.943	147
3280.002	150
3283.059	148
3286.113	137
3289.165	146
3292.214	149
3295.261	152
3298.306	157
3301.348	144
3304.387	138
3307.425	141
3310.459	133
3313.492	141
3316.521	138
3319.549	143
3322.574	137
3325.597	136
3328.617	135
3331.635	138
3334.65	139
3337.663	134
3340.674	141
3343.682	138
3346.688	135
3349.691	145
3352.692	137
3355.691	138
3358.687	138
3361.681	137
3364.673	130
3367.662	140
3370.649	135
3373.633	129
3376.615	132
3379.595	117
3382.572	120
3385.547	119
3388.52	112
3391.49	106
3394.458	108
3397.424	115
3400.387	120
3403.348	101
3406.307	103
3409.263	109
3412.217	109
3415.168	108
3418.118	103
3421.065	99
3424.009	94
3426.951	91
3429.891	88
3432.829	90
3435.764	100
3438.697	86
3441.628	70
3444.557	81
3447.483	74
3450.407	63
3453.328	70
3456.247	60
3459.164	55
3462.079	51
3464.991	52
3467.902	49
3470.809	44
3473.715	49
3476.618	42
3479.519	34
3482.418	37
3485.315	39
3488.209	25
3491.101	24
3493.99	30
3496.878	23
3499.763	18
3502.646	17
3505.527	13
3508.405	15
3511.281	12
3514.155	13
3517.027	2
3519.897	11
3522.764	1
3525.629	3
3528.492	-4
3531.352	-8
3534.211	-13
3537.067	-7
3539.921	-1
3542.773	-17
3545.622	-13
3548.469	-6
3551.315	-9
3554.157	-13
3556.998	-21
3559.837	-15
3562.673	-23
3565.507	-20
3568.339	-16
3571.169	-25
3573.996	-21
3576.822	-29
3579.645	-26
3582.466	-26
3585.285	-29
3588.101	-36
3590.916	-28
3593.728	-37
3596.538	-35
3599.346	-33
3602.152	-34
3604.956	-33
3607.757	-30
3610.556	-32
3613.354	-43
3616.149	-38
3618.942	-35
3621.732	-42
3624.521	-32
3627.307	-37
3630.092	-40
3632.874	-41
3635.654	-40
3638.432	-44
3641.208	-44
3643.982	-43
3646.753	-43
3649.523	-44
3652.29	-49
3655.055	-42
3657.818	-50
3660.579	-46
3663.338	-41
3666.095	-47
3668.849	-54
3671.602	-47
3674.352	-49
3677.101	-44
3679.847	-46
3682.591	-55
3685.333	-51
3688.073	-54
3690.811	-50
3693.547	-55
3696.281	-51
3699.013	-49
3701.742	-55
3704.47	-50
3707.195	-54
3709.919	-56
3712.64	-56
3715.359	-50
3718.076	-56
3720.792	-54
3723.505	-56
3726.216	-52
3728.925	-55
3731.632	-49
3734.336	-56
3737.039	-46
3739.74	-50
3742.439	-61
3745.136	-57
3747.83	-53
3750.523	-62
3753.213	-66
3755.902	-57
3758.589	-59
3761.273	-55
3763.956	-58
3766.636	-56
3769.315	-56
3771.991	-58
3774.665	-62
3777.338	-54
3780.008	-62
3782.677	-61
3785.343	-57
3788.007	-53
3790.67	-61
3793.33	-59
3795.989	-58
3798.645	-58
3801.299	-55
3803.952	-58
3806.602	-59
3809.251	-61
3811.897	-62
3814.542	-68
3817.184	-58
3819.825	-55
3822.463	-56
3825.1	-62
3827.735	-60
3830.367	-58
3832.998	-61
3835.627	-58
3838.253	-56
3840.878	-52
3843.501	-54
3846.122	-57
3848.741	-60
3851.358	-58
3853.973	-55
3856.586	-58
3859.197	-58
3861.806	-56
3864.414	-59
3867.019	-65
3869.622	-54
3872.224	-45
3874.823	-38
3877.421	-30
3880.016	-20
3882.61	3
3885.202	15
3887.792	0
3890.38	-23
3892.966	-44
3895.55	-53
3898.132	-55
3900.713	-59
3903.291	-64
3905.868	-50
3908.442	-55
3911.015	-58
3913.586	-61
3916.155	-61
3918.722	-64
3921.287	-62
3923.85	-52
3926.411	-69
3928.971	-66
3931.528	-64
3934.084	-58
3936.638	-59
3939.19	-68
3941.74	-56
3944.288	-57
3946.834	-60
3949.378	-60
3951.921	-56
3954.462	-60
3957	-54
3959.537	-48
3962.072	-57
3964.606	-56
3967.137	-60
3969.667	-61
3972.194	-61
3974.72	-52
3977.244	-56
3979.766	-61
3982.286	-60
3984.805	-67
3987.321	-61
3989.836	-63
3992.349	-58
3994.86	-62
3997.369	-64
3999.877	-62
4002.382	-60
4004.886	-57
4007.388	-62
4009.888	-58
4012.386	-60
4014.883	-54
4017.377	-57
4019.87	-58
4022.361	-59
4024.85	-59
4027.338	-61
4029.823	-59
4032.307	-61
4034.789	-56
4037.269	-57
4039.747	-59
4042.224	-60
4044.699	-59
4047.172	-61
4049.643	-63
4052.112	-60
4054.58	-63
4057.046	-61
4059.51	-64
4061.972	-63
4064.432	-57
4066.891	-57
4069.348	-59
4071.803	-56
4074.256	-56
4076.708	-58
4079.158	-61
4081.606	-58
4084.052	-61
4086.497	-52
4088.939	-60
4091.38	-60
4093.819	-63
4096.257	-60
4098.693	-67
4101.127	-56
4103.559	-64
4105.989	13
4108.418	8
4110.845	2
4113.27	4
4115.694	14
4118.115	11
4120.535	-62
4122.954	-57
4125.37	-59
4127.785	-59
4130.198	-60
4132.609	-61
4135.019	-62
4137.427	-67
4139.833	-59
4142.237	-65
