Data from 2018-3-7_conc=3_n=4_RamanShift_05.txt Node
Date: Wed Mar 07 11:26:52 IST 2018
User: aro
Spectrometer: QEPB0276
Trigger mode: 0
Integration Time (sec): 3.000000E1
Scans to average: 1
Electric dark correction enabled: true
Nonlinearity correction enabled: false
Boxcar width: 0
XAxis mode: Raman Shifts
Number of Pixels in Spectrum: 1044
>>>>>Begin Spectral Data<<<<<
160.701	12
166.742	22
172.777	46
178.805	127
184.826	329
190.841	690
196.849	1143
202.85	1492
208.845	1627
214.833	1645
220.815	1617
226.789	1610
232.758	1625
238.719	1615
244.674	1644
250.623	1610
256.565	1592
262.5	1585
268.429	1564
274.351	1581
280.267	1564
286.176	1553
292.079	1575
297.975	1560
303.865	1562
309.748	1563
315.625	1558
321.495	1534
327.359	1574
333.217	1563
339.068	1562
344.912	1578
350.751	1585
356.583	1597
362.408	1570
368.227	1583
374.04	1596
379.847	1604
385.647	1612
391.44	1622
397.228	1614
403.009	1626
408.784	1655
414.553	1648
420.315	1647
426.071	1646
431.821	1655
437.565	1649
443.302	1648
449.033	1644
454.758	1629
460.477	1606
466.189	1610
471.896	1579
477.596	1575
483.29	1553
488.978	1569
494.66	1556
500.335	1535
506.005	1458
511.668	1410
517.325	1364
522.977	1315
528.622	1273
534.261	1248
539.894	1217
545.521	1212
551.141	1202
556.756	1187
562.365	1177
567.968	1157
573.565	1158
579.155	1159
584.74	1155
590.319	1141
595.892	1136
601.459	1140
607.02	1137
612.575	1130
618.124	1119
623.667	1110
629.204	1074
634.735	1075
640.261	1060
645.781	1051
651.294	1066
656.802	1058
662.304	1049
667.8	1051
673.29	1049
678.775	1036
684.254	1036
689.726	1027
695.193	1027
700.655	1014
706.11	1013
711.56	1016
717.004	994
722.442	986
727.874	982
733.301	985
738.722	988
744.137	993
749.547	977
754.951	976
760.349	979
765.741	981
771.128	977
776.509	1001
781.885	1002
787.254	1009
792.618	1023
797.977	1006
803.33	998
808.677	1005
814.019	1003
819.355	980
824.686	977
830.011	974
835.33	970
840.644	974
845.952	947
851.255	945
856.552	951
861.844	933
867.13	916
872.41	924
877.686	927
882.955	918
888.219	896
893.478	896
898.731	873
903.979	859
909.221	863
914.458	850
919.69	858
924.916	867
930.136	860
935.351	850
940.561	846
945.766	853
950.965	855
956.158	844
961.347	827
966.529	823
971.707	806
976.879	810
982.046	808
987.208	798
992.364	782
997.515	786
1002.66	791
1007.801	802
1012.936	821
1018.066	837
1023.19	820
1028.309	811
1033.423	817
1038.532	807
1043.636	817
1048.734	801
1053.827	780
1058.915	781
1063.998	770
1069.075	777
1074.147	766
1079.214	788
1084.276	774
1089.333	790
1094.385	779
1099.431	776
1104.472	782
1109.509	764
1114.54	751
1119.565	752
1124.586	735
1129.602	723
1134.613	719
1139.618	716
1144.619	713
1149.614	723
1154.604	716
1159.589	715
1164.57	729
1169.545	736
1174.515	733
1179.48	728
1184.44	721
1189.395	715
1194.345	707
1199.29	700
1204.23	703
1209.165	698
1214.095	710
1219.021	716
1223.941	704
1228.856	710
1233.766	718
1238.672	719
1243.572	714
1248.467	712
1253.358	706
1258.244	701
1263.124	680
1268	652
1272.871	655
1277.737	654
1282.599	657
1287.455	655
1292.306	654
1297.153	650
1301.995	656
1306.832	659
1311.664	662
1316.491	673
1321.314	666
1326.132	667
1330.945	637
1335.753	635
1340.556	620
1345.354	613
1350.148	594
1354.937	592
1359.722	567
1364.501	562
1369.276	547
1374.046	536
1378.811	545
1383.572	541
1388.327	542
1393.079	534
1397.825	543
1402.567	545
1407.304	535
1412.036	557
1416.764	545
1421.487	551
1426.205	550
1430.919	541
1435.628	543
1440.333	554
1445.032	556
1449.727	564
1454.418	570
1459.104	569
1463.785	552
1468.462	553
1473.134	524
1477.802	513
1482.465	497
1487.123	494
1491.777	482
1496.426	485
1501.071	480
1505.711	462
1510.347	475
1514.978	468
1519.604	464
1524.226	452
1528.844	459
1533.457	456
1538.065	454
1542.669	450
1547.269	449
1551.864	461
1556.454	467
1561.041	482
1565.622	481
1570.199	470
1574.772	481
1579.34	491
1583.904	493
1588.464	500
1593.019	504
1597.569	490
1602.115	489
1606.657	501
1611.195	487
1615.728	493
1620.256	491
1624.78	481
1629.3	497
1633.816	495
1638.327	490
1642.834	489
1647.336	483
1651.834	483
1656.328	483
1660.817	485
1665.302	479
1669.783	464
1674.259	451
1678.732	456
1683.199	422
1687.663	424
1692.122	392
1696.577	380
1701.028	373
1705.474	352
1709.917	341
1714.355	329
1718.788	337
1723.218	332
1727.643	332
1732.064	335
1736.481	326
1740.893	325
1745.301	323
1749.705	310
1754.105	296
1758.501	302
1762.893	294
1767.28	282
1771.663	290
1776.042	283
1780.417	282
1784.787	274
1789.154	265
1793.516	253
1797.874	251
1802.228	261
1806.578	249
1810.924	255
1815.266	248
1819.603	246
1823.937	254
1828.266	248
1832.591	261
1836.913	255
1841.23	249
1845.543	247
1849.852	255
1854.156	257
1858.457	254
1862.754	263
1867.047	255
1871.335	249
1875.62	250
1879.9	258
1884.177	239
1888.449	248
1892.718	247
1896.982	237
1901.243	224
1905.499	225
1909.752	228
1914	220
1918.245	222
1922.485	206
1926.722	207
1930.954	199
1935.183	200
1939.408	206
1943.628	202
1947.845	195
1952.058	202
1956.267	198
1960.472	205
1964.673	199
1968.87	193
1973.063	202
1977.252	197
1981.438	197
1985.619	187
1989.797	189
1993.971	192
1998.14	192
2002.306	194
2006.469	203
2010.627	192
2014.781	195
2018.932	194
2023.078	196
2027.221	191
2031.36	189
2035.495	182
2039.627	180
2043.754	184
2047.878	180
2051.998	183
2056.114	178
2060.226	170
2064.334	165
2068.439	169
2072.54	168
2076.637	179
2080.73	170
2084.82	183
2088.906	165
2092.988	172
2097.066	165
2101.14	167
2105.211	160
2109.278	158
2113.342	150
2117.401	156
2121.457	150
2125.509	152
2129.558	152
2133.602	146
2137.643	153
2141.681	145
2145.714	149
2149.744	151
2153.77	147
2157.793	154
2161.812	158
2165.827	155
2169.838	140
2173.846	142
2177.851	146
2181.851	139
2185.848	140
2189.841	135
2193.831	137
2197.817	133
2201.799	138
2205.778	133
2209.753	143
2213.725	131
2217.693	142
2221.657	130
2225.618	127
2229.575	128
2233.529	129
2237.479	128
2241.425	119
2245.368	121
2249.307	120
2253.243	118
2257.175	117
2261.104	117
2265.029	126
2268.95	118
2272.868	121
2276.783	118
2280.694	107
2284.601	111
2288.505	114
2292.405	108
2296.302	114
2300.195	102
2304.085	100
2307.971	100
2311.854	98
2315.734	98
2319.609	106
2323.482	103
2327.351	109
2331.216	118
2335.078	129
2338.937	111
2342.792	109
2346.643	98
2350.492	103
2354.336	101
2358.178	94
2362.015	102
2365.85	99
2369.681	99
2373.508	106
2377.333	104
2381.153	100
2384.971	104
2388.785	99
2392.595	91
2396.402	99
2400.206	97
2404.007	99
2407.804	91
2411.597	93
2415.388	93
2419.174	99
2422.958	97
2426.738	99
2430.515	92
2434.289	96
2438.059	95
2441.825	86
2445.589	87
2449.349	88
2453.106	88
2456.859	86
2460.61	81
2464.356	82
2468.1	88
2471.84	74
2475.577	74
2479.311	78
2483.041	76
2486.768	79
2490.492	82
2494.213	70
2497.93	77
2501.644	78
2505.355	69
2509.062	71
2512.766	64
2516.467	67
2520.165	68
2523.859	68
2527.551	65
2531.239	65
2534.923	69
2538.605	66
2542.283	57
2545.958	62
2549.63	68
2553.299	58
2556.964	58
2560.626	61
2564.285	61
2567.941	54
2571.594	59
2575.243	56
2578.89	51
2582.533	54
2586.173	49
2589.809	53
2593.443	63
2597.073	57
2600.701	58
2604.325	40
2607.946	37
2611.564	48
2615.178	46
2618.79	46
2622.398	48
2626.004	42
2629.606	40
2633.205	42
2636.801	44
2640.394	51
2643.983	47
2647.57	43
2651.153	38
2654.734	42
2658.311	42
2661.885	49
2665.456	44
2669.025	39
2672.589	35
2676.151	37
2679.71	33
2683.266	37
2686.819	41
2690.368	34
2693.915	37
2697.458	29
2700.999	41
2704.536	30
2708.071	36
2711.602	28
2715.13	26
2718.656	29
2722.178	32
2725.697	28
2729.214	17
2732.727	31
2736.237	33
2739.744	30
2743.249	23
2746.75	19
2750.248	21
2753.743	21
2757.236	21
2760.725	21
2764.211	19
2767.695	14
2771.175	16
2774.652	21
2778.127	17
2781.598	13
2785.067	12
2788.532	14
2791.995	15
2795.455	14
2798.911	8
2802.365	20
2805.816	15
2809.264	17
2812.709	15
2816.151	20
2819.59	34
2823.026	21
2826.46	25
2829.89	17
2833.318	21
2836.742	22
2840.164	20
2843.583	15
2846.999	28
2850.412	24
2853.822	21
2857.229	20
2860.634	18
2864.035	17
2867.434	22
2870.83	23
2874.223	21
2877.613	28
2881	27
2884.385	27
2887.766	37
2891.145	25
2894.521	31
2897.894	33
2901.264	34
2904.631	25
2907.996	27
2911.358	37
2914.717	30
2918.073	31
2921.426	29
2924.777	37
2928.124	37
2931.469	38
2934.811	45
2938.15	45
2941.487	52
2944.821	36
2948.152	39
2951.48	42
2954.805	43
2958.128	41
2961.447	39
2964.765	40
2968.079	33
2971.39	36
2974.699	38
2978.005	46
2981.308	39
2984.609	35
2987.907	38
2991.202	43
2994.494	34
2997.784	38
3001.07	39
3004.355	40
3007.636	40
3010.915	43
3014.191	36
3017.464	42
3020.734	38
3024.002	47
3027.267	44
3030.53	50
3033.789	47
3037.046	53
3040.301	46
3043.552	55
3046.801	55
3050.048	52
3053.291	50
3056.532	55
3059.771	55
3063.006	61
3066.239	62
3069.469	74
3072.697	76
3075.922	73
3079.144	74
3082.364	79
3085.581	81
3088.795	81
3092.007	83
3095.216	88
3098.423	82
3101.627	78
3104.828	86
3108.026	99
3111.222	99
3114.416	98
3117.607	99
3120.795	98
3123.98	100
3127.163	111
3130.344	115
3133.521	113
3136.696	114
3139.869	117
3143.039	124
3146.206	129
3149.371	133
3152.533	131
3155.693	129
3158.85	131
3162.005	128
3165.157	121
3168.306	132
3171.453	126
3174.597	128
3177.739	129
3180.878	132
3184.014	121
3187.149	128
3190.28	136
3193.409	133
3196.536	130
3199.659	130
3202.781	135
3205.9	128
3209.016	129
3212.13	130
3215.241	130
3218.35	125
3221.456	134
3224.56	124
3227.661	129
3230.76	126
3233.856	117
3236.95	118
3240.041	113
3243.13	122
3246.216	113
3249.3	104
3252.382	111
3255.46	109
3258.537	96
3261.611	103
3264.682	103
3267.751	98
3270.818	94
3273.882	99
3276.943	99
3280.002	102
3283.059	103
3286.113	96
3289.165	89
3292.214	100
3295.261	101
3298.306	94
3301.348	98
3304.387	90
3307.425	88
3310.459	85
3313.492	83
3316.521	87
3319.549	96
3322.574	82
3325.597	88
3328.617	91
3331.635	92
3334.65	94
3337.663	76
3340.674	88
3343.682	86
3346.688	79
3349.691	89
3352.692	82
3355.691	90
3358.687	79
3361.681	82
3364.673	83
3367.662	81
3370.649	81
3373.633	82
3376.615	78
3379.595	71
3382.572	78
3385.547	74
3388.52	75
3391.49	67
3394.458	60
3397.424	70
3400.387	68
3403.348	63
3406.307	58
3409.263	58
3412.217	63
3415.168	66
3418.118	59
3421.065	55
3424.009	57
3426.951	52
3429.891	56
3432.829	49
3435.764	54
3438.697	48
3441.628	47
3444.557	41
3447.483	44
3450.407	33
3453.328	34
3456.247	34
3459.164	35
3462.079	28
3464.991	31
3467.902	27
3470.809	23
3473.715	22
3476.618	24
3479.519	18
3482.418	15
3485.315	15
3488.209	4
3491.101	11
3493.99	12
3496.878	12
3499.763	5
3502.646	3
3505.527	1
3508.405	4
3511.281	8
3514.155	3
3517.027	-4
3519.897	-3
3522.764	-8
3525.629	-8
3528.492	-8
3531.352	-18
3534.211	-17
3537.067	-19
3539.921	-13
3542.773	-18
3545.622	-16
3548.469	-9
3551.315	-11
3554.157	-18
3556.998	-14
3559.837	-21
3562.673	-26
3565.507	-21
3568.339	-16
3571.169	-25
3573.996	-19
3576.822	-31
3579.645	-28
3582.466	-23
3585.285	-23
3588.101	-27
3590.916	-20
3593.728	-28
3596.538	-34
3599.346	-29
3602.152	-32
3604.956	-31
3607.757	-23
3610.556	-34
3613.354	-39
3616.149	-36
3618.942	-34
3621.732	-31
3624.521	-32
3627.307	-35
3630.092	-37
3632.874	-37
3635.654	-34
3638.432	-36
3641.208	-32
3643.982	-33
3646.753	-39
3649.523	-41
3652.29	-39
3655.055	-39
3657.818	-42
3660.579	-39
3663.338	-36
3666.095	-38
3668.849	-43
3671.602	-42
3674.352	-36
3677.101	-38
3679.847	-38
3682.591	-45
3685.333	-39
3688.073	-51
3690.811	-41
3693.547	-43
3696.281	-39
3699.013	-41
3701.742	-49
3704.47	-41
3707.195	-44
3709.919	-43
3712.64	-45
3715.359	-46
3718.076	-45
3720.792	-44
3723.505	-42
3726.216	-39
3728.925	-48
3731.632	-41
3734.336	-49
3737.039	-39
3739.74	-47
3742.439	-44
3745.136	-48
3747.83	-46
3750.523	-45
3753.213	-48
3755.902	-48
3758.589	-45
3761.273	-50
3763.956	-47
3766.636	-49
3769.315	-40
3771.991	-48
3774.665	-55
3777.338	-46
3780.008	-48
3782.677	-53
3785.343	-48
3788.007	-46
3790.67	-47
3793.33	-44
3795.989	-46
3798.645	-48
3801.299	-46
3803.952	-50
3806.602	-45
3809.251	-52
3811.897	-48
3814.542	-52
3817.184	-48
3819.825	-44
3822.463	-44
3825.1	-43
3827.735	-51
3830.367	-49
3832.998	-48
3835.627	-49
3838.253	-43
3840.878	-44
3843.501	-43
3846.122	-50
3848.741	-50
3851.358	-48
3853.973	-43
3856.586	-46
3859.197	-47
3861.806	-49
3864.414	-47
3867.019	-48
3869.622	-39
3872.224	-40
3874.823	-22
3877.421	-28
3880.016	-14
3882.61	-1
3885.202	4
3887.792	2
3890.38	-16
3892.966	-40
3895.55	-47
3898.132	-46
3900.713	-47
3903.291	-50
3905.868	-44
3908.442	-45
3911.015	-48
3913.586	-53
3916.155	-47
3918.722	-49
3921.287	-45
3923.85	-43
3926.411	-47
3928.971	-56
3931.528	-50
3934.084	-48
3936.638	-44
3939.19	-55
3941.74	-45
3944.288	-50
3946.834	-47
3949.378	-52
3951.921	-47
3954.462	-50
3957	-41
3959.537	-40
3962.072	-45
3964.606	-40
3967.137	-46
3969.667	-52
3972.194	-46
3974.72	-48
3977.244	-46
3979.766	-48
3982.286	-48
3984.805	-55
3987.321	-44
3989.836	-46
3992.349	-44
3994.86	-49
3997.369	-53
3999.877	-44
4002.382	-46
4004.886	-45
4007.388	-46
4009.888	-52
4012.386	-51
4014.883	-49
4017.377	-45
4019.87	-49
4022.361	-55
4024.85	-46
4027.338	-50
4029.823	-50
4032.307	-48
4034.789	-45
4037.269	-46
4039.747	-49
4042.224	-48
4044.699	-47
4047.172	-51
4049.643	-51
4052.112	-47
4054.58	-47
4057.046	-50
4059.51	-49
4061.972	-52
4064.432	-49
4066.891	-42
4069.348	-44
4071.803	-47
4074.256	-46
4076.708	-45
4079.158	-54
4081.606	-49
4084.052	-54
4086.497	-45
4088.939	-45
4091.38	-48
4093.819	-53
4096.257	-54
4098.693	-54
4101.127	-44
4103.559	-54
4105.989	18
4108.418	13
4110.845	9
4113.27	12
4115.694	16
4118.115	17
4120.535	-47
4122.954	-43
4125.37	-45
4127.785	-41
4130.198	-43
4132.609	-52
4135.019	-52
4137.427	-54
4139.833	-49
4142.237	-52
