Data from 2018-3-7_conc=5_n=9_RamanShift_01.txt Node
Date: Wed Mar 07 12:50:22 IST 2018
User: aro
Spectrometer: QEPB0276
Trigger mode: 0
Integration Time (sec): 3.000000E1
Scans to average: 1
Electric dark correction enabled: true
Nonlinearity correction enabled: false
Boxcar width: 0
XAxis mode: Raman Shifts
Number of Pixels in Spectrum: 1044
>>>>>Begin Spectral Data<<<<<
160.701	0
166.742	23
172.777	66
178.805	244
184.826	676
190.841	1497
196.849	2498
202.85	3271
208.845	3599
214.833	3601
220.815	3508
226.789	3487
232.758	3500
238.719	3472
244.674	3443
250.623	3373
256.565	3330
262.5	3269
268.429	3234
274.351	3179
280.267	3145
286.176	3124
292.079	3105
297.975	3073
303.865	3047
309.748	3044
315.625	3022
321.495	3011
327.359	3014
333.217	3001
339.068	3020
344.912	2992
350.751	3002
356.583	3007
362.408	3018
368.227	3016
374.04	3007
379.847	3003
385.647	3005
391.44	3045
397.228	3031
403.009	3030
408.784	3072
414.553	3075
420.315	3088
426.071	3078
431.821	3086
437.565	3071
443.302	3056
449.033	3083
454.758	3076
460.477	3061
466.189	3046
471.896	3001
477.596	2989
483.29	3006
488.978	3008
494.66	2987
500.335	2945
506.005	2904
511.668	2820
517.325	2781
522.977	2734
528.622	2719
534.261	2675
539.894	2655
545.521	2631
551.141	2615
556.756	2585
562.365	2601
567.968	2582
573.565	2549
579.155	2560
584.74	2534
590.319	2523
595.892	2546
601.459	2516
607.02	2522
612.575	2472
618.124	2472
623.667	2442
629.204	2435
634.735	2422
640.261	2397
645.781	2382
651.294	2390
656.802	2359
662.304	2383
667.8	2363
673.29	2379
678.775	2345
684.254	2345
689.726	2331
695.193	2330
700.655	2304
706.11	2297
711.56	2289
717.004	2274
722.442	2273
727.874	2256
733.301	2252
738.722	2249
744.137	2226
749.547	2236
754.951	2223
760.349	2235
765.741	2240
771.128	2231
776.509	2260
781.885	2257
787.254	2248
792.618	2238
797.977	2232
803.33	2206
808.677	2194
814.019	2193
819.355	2165
824.686	2170
830.011	2172
835.33	2160
840.644	2165
845.952	2158
851.255	2141
856.552	2171
861.844	2144
867.13	2138
872.41	2136
877.686	2138
882.955	2095
888.219	2099
893.478	2058
898.731	2013
903.979	1991
909.221	1995
914.458	1978
919.69	1991
924.916	1979
930.136	1984
935.351	1999
940.561	1998
945.766	1999
950.965	1987
956.158	1963
961.347	1946
966.529	1927
971.707	1892
976.879	1880
982.046	1871
987.208	1853
992.364	1846
997.515	1854
1002.66	1858
1007.801	1899
1012.936	1899
1018.066	1916
1023.19	1881
1028.309	1894
1033.423	1896
1038.532	1899
1043.636	1867
1048.734	1858
1053.827	1822
1058.915	1795
1063.998	1797
1069.075	1780
1074.147	1781
1079.214	1808
1084.276	1792
1089.333	1826
1094.385	1824
1099.431	1806
1104.472	1814
1109.509	1800
1114.54	1765
1119.565	1755
1124.586	1740
1129.602	1712
1134.613	1714
1139.618	1685
1144.619	1676
1149.614	1683
1154.604	1680
1159.589	1677
1164.57	1702
1169.545	1700
1174.515	1711
1179.48	1694
1184.44	1675
1189.395	1688
1194.345	1669
1199.29	1647
1204.23	1630
1209.165	1649
1214.095	1669
1219.021	1667
1223.941	1688
1228.856	1701
1233.766	1686
1238.672	1706
1243.572	1668
1248.467	1682
1253.358	1663
1258.244	1633
1263.124	1617
1268	1593
1272.871	1595
1277.737	1558
1282.599	1564
1287.455	1554
1292.306	1564
1297.153	1566
1301.995	1566
1306.832	1576
1311.664	1590
1316.491	1587
1321.314	1595
1326.132	1601
1330.945	1555
1335.753	1544
1340.556	1504
1345.354	1497
1350.148	1450
1354.937	1416
1359.722	1371
1364.501	1324
1369.276	1289
1374.046	1266
1378.811	1286
1383.572	1271
1388.327	1264
1393.079	1276
1397.825	1288
1402.567	1307
1407.304	1297
1412.036	1314
1416.764	1305
1421.487	1333
1426.205	1332
1430.919	1314
1435.628	1329
1440.333	1338
1445.032	1349
1449.727	1365
1454.418	1366
1459.104	1366
1463.785	1311
1468.462	1299
1473.134	1282
1477.802	1242
1482.465	1202
1487.123	1183
1491.777	1154
1496.426	1121
1501.071	1112
1505.711	1106
1510.347	1102
1514.978	1099
1519.604	1083
1524.226	1079
1528.844	1082
1533.457	1086
1538.065	1077
1542.669	1076
1547.269	1087
1551.864	1084
1556.454	1118
1561.041	1128
1565.622	1143
1570.199	1145
1574.772	1148
1579.34	1188
1583.904	1177
1588.464	1212
1593.019	1205
1597.569	1221
1602.115	1211
1606.657	1215
1611.195	1216
1615.728	1221
1620.256	1190
1624.78	1198
1629.3	1197
1633.816	1221
1638.327	1211
1642.834	1209
1647.336	1219
1651.834	1200
1656.328	1204
1660.817	1189
1665.302	1174
1669.783	1141
1674.259	1111
1678.732	1085
1683.199	1052
1687.663	994
1692.122	960
1696.577	880
1701.028	831
1705.474	790
1709.917	760
1714.355	750
1718.788	767
1723.218	770
1727.643	778
1732.064	771
1736.481	774
1740.893	750
1745.301	738
1749.705	739
1754.105	721
1758.501	691
1762.893	681
1767.28	688
1771.663	669
1776.042	665
1780.417	646
1784.787	635
1789.154	611
1793.516	594
1797.874	581
1802.228	571
1806.578	560
1810.924	554
1815.266	554
1819.603	556
1823.937	578
1828.266	572
1832.591	589
1836.913	585
1841.23	592
1845.543	597
1849.852	595
1854.156	591
1858.457	599
1862.754	607
1867.047	594
1871.335	598
1875.62	593
1879.9	584
1884.177	582
1888.449	571
1892.718	567
1896.982	556
1901.243	539
1905.499	523
1909.752	520
1914	505
1918.245	491
1922.485	477
1926.722	471
1930.954	462
1935.183	461
1939.408	457
1943.628	457
1947.845	451
1952.058	443
1956.267	438
1960.472	446
1964.673	427
1968.87	437
1973.063	452
1977.252	446
1981.438	452
1985.619	440
1989.797	448
1993.971	463
1998.14	466
2002.306	475
2006.469	478
2010.627	475
2014.781	476
2018.932	477
2023.078	473
2027.221	468
2031.36	464
2035.495	448
2039.627	436
2043.754	431
2047.878	432
2051.998	424
2056.114	425
2060.226	432
2064.334	426
2068.439	416
2072.54	406
2076.637	412
2080.73	409
2084.82	395
2088.906	386
2092.988	394
2097.066	378
2101.14	379
2105.211	377
2109.278	369
2113.342	355
2117.401	361
2121.457	358
2125.509	361
2129.558	360
2133.602	360
2137.643	369
2141.681	365
2145.714	362
2149.744	363
2153.77	367
2157.793	373
2161.812	373
2165.827	387
2169.838	363
2173.846	367
2177.851	352
2181.851	359
2185.848	358
2189.841	342
2193.831	345
2197.817	345
2201.799	346
2205.778	345
2209.753	350
2213.725	350
2217.693	348
2221.657	343
2225.618	348
2229.575	334
2233.529	342
2237.479	336
2241.425	331
2245.368	340
2249.307	322
2253.243	314
2257.175	319
2261.104	304
2265.029	302
2268.95	308
2272.868	311
2276.783	294
2280.694	297
2284.601	285
2288.505	289
2292.405	292
2296.302	288
2300.195	288
2304.085	276
2307.971	273
2311.854	267
2315.734	269
2319.609	275
2323.482	282
2327.351	271
2331.216	267
2335.078	276
2338.937	270
2342.792	276
2346.643	269
2350.492	273
2354.336	268
2358.178	260
2362.015	271
2365.85	279
2369.681	278
2373.508	273
2377.333	273
2381.153	273
2384.971	268
2388.785	270
2392.595	268
2396.402	284
2400.206	274
2404.007	261
2407.804	267
2411.597	263
2415.388	271
2419.174	264
2422.958	262
2426.738	268
2430.515	264
2434.289	261
2438.059	258
2441.825	248
2445.589	255
2449.349	256
2453.106	252
2456.859	246
2460.61	251
2464.356	236
2468.1	239
2471.84	226
2475.577	229
2479.311	221
2483.041	228
2486.768	220
2490.492	220
2494.213	216
2497.93	224
2501.644	219
2505.355	211
2509.062	211
2512.766	218
2516.467	208
2520.165	204
2523.859	199
2527.551	194
2531.239	190
2534.923	183
2538.605	187
2542.283	180
2545.958	183
2549.63	179
2553.299	177
2556.964	174
2560.626	170
2564.285	167
2567.941	162
2571.594	163
2575.243	169
2578.89	173
2582.533	160
2586.173	145
2589.809	165
2593.443	164
2597.073	152
2600.701	160
2604.325	156
2607.946	145
2611.564	148
2615.178	155
2618.79	151
2622.398	145
2626.004	156
2629.606	150
2633.205	148
2636.801	144
2640.394	156
2643.983	148
2647.57	146
2651.153	141
2654.734	142
2658.311	141
2661.885	140
2665.456	135
2669.025	140
2672.589	134
2676.151	126
2679.71	121
2683.266	127
2686.819	134
2690.368	126
2693.915	129
2697.458	124
2700.999	128
2704.536	130
2708.071	122
2711.602	105
2715.13	107
2718.656	107
2722.178	103
2725.697	106
2729.214	110
2732.727	100
2736.237	107
2739.744	88
2743.249	94
2746.75	94
2750.248	85
2753.743	78
2757.236	81
2760.725	81
2764.211	75
2767.695	67
2771.175	70
2774.652	67
2778.127	75
2781.598	70
2785.067	71
2788.532	71
2791.995	81
2795.455	79
2798.911	79
2802.365	80
2805.816	83
2809.264	80
2812.709	77
2816.151	86
2819.59	95
2823.026	84
2826.46	85
2829.89	79
2833.318	78
2836.742	86
2840.164	77
2843.583	79
2846.999	80
2850.412	79
2853.822	85
2857.229	91
2860.634	87
2864.035	82
2867.434	97
2870.83	95
2874.223	102
2877.613	97
2881	109
2884.385	118
2887.766	116
2891.145	108
2894.521	117
2897.894	111
2901.264	115
2904.631	107
2907.996	117
2911.358	129
2914.717	122
2918.073	123
2921.426	123
2924.777	129
2928.124	134
2931.469	143
2934.811	139
2938.15	146
2941.487	154
2944.821	147
2948.152	155
2951.48	151
2954.805	157
2958.128	139
2961.447	147
2964.765	147
2968.079	140
2971.39	139
2974.699	130
2978.005	140
2981.308	133
2984.609	136
2987.907	131
2991.202	135
2994.494	141
2997.784	127
3001.07	141
3004.355	138
3007.636	142
3010.915	149
3014.191	148
3017.464	149
3020.734	161
3024.002	153
3027.267	160
3030.53	161
3033.789	176
3037.046	168
3040.301	175
3043.552	183
3046.801	192
3050.048	185
3053.291	198
3056.532	200
3059.771	203
3063.006	215
3066.239	235
3069.469	232
3072.697	239
3075.922	244
3079.144	254
3082.364	254
3085.581	272
3088.795	266
3092.007	275
3095.216	278
3098.423	283
3101.627	279
3104.828	304
3108.026	300
3111.222	300
3114.416	306
3117.607	315
3120.795	310
3123.98	329
3127.163	346
3130.344	340
3133.521	347
3136.696	363
3139.869	377
3143.039	373
3146.206	387
3149.371	377
3152.533	389
3155.693	397
3158.85	396
3162.005	403
3165.157	401
3168.306	396
3171.453	413
3174.597	419
3177.739	410
3180.878	404
3184.014	403
3187.149	414
3190.28	414
3193.409	410
3196.536	419
3199.659	417
3202.781	418
3205.9	411
3209.016	413
3212.13	419
3215.241	423
3218.35	414
3221.456	414
3224.56	406
3227.661	399
3230.76	385
3233.856	383
3236.95	371
3240.041	375
3243.13	365
3246.216	352
3249.3	351
3252.382	347
3255.46	347
3258.537	335
3261.611	330
3264.682	321
3267.751	327
3270.818	331
3273.882	331
3276.943	323
3280.002	323
3283.059	321
3286.113	319
3289.165	313
3292.214	320
3295.261	309
3298.306	312
3301.348	312
3304.387	312
3307.425	301
3310.459	298
3313.492	300
3316.521	294
3319.549	301
3322.574	293
3325.597	296
3328.617	298
3331.635	294
3334.65	304
3337.663	289
3340.674	304
3343.682	294
3346.688	287
3349.691	296
3352.692	301
3355.691	293
3358.687	296
3361.681	298
3364.673	285
3367.662	285
3370.649	282
3373.633	276
3376.615	276
3379.595	270
3382.572	259
3385.547	265
3388.52	259
3391.49	247
3394.458	242
3397.424	245
3400.387	234
3403.348	227
3406.307	224
3409.263	229
3412.217	220
3415.168	226
3418.118	224
3421.065	216
3424.009	210
3426.951	207
3429.891	206
3432.829	193
3435.764	198
3438.697	189
3441.628	178
3444.557	185
3447.483	173
3450.407	157
3453.328	157
3456.247	147
3459.164	142
3462.079	134
3464.991	127
3467.902	119
3470.809	123
3473.715	120
3476.618	106
3479.519	104
3482.418	95
3485.315	95
3488.209	87
3491.101	83
3493.99	87
3496.878	73
3499.763	72
3502.646	69
3505.527	72
3508.405	66
3511.281	60
3514.155	47
3517.027	40
3519.897	45
3522.764	42
3525.629	33
3528.492	27
3531.352	24
3534.211	15
3537.067	13
3539.921	15
3542.773	0
3545.622	5
3548.469	8
3551.315	5
3554.157	2
3556.998	2
3559.837	-7
3562.673	-6
3565.507	-11
3568.339	-3
3571.169	-11
3573.996	-14
3576.822	-13
3579.645	-18
3582.466	-23
3585.285	-24
3588.101	-29
3590.916	-23
3593.728	-29
3596.538	-33
3599.346	-37
3602.152	-35
3604.956	-32
3607.757	-35
3610.556	-39
3613.354	-44
3616.149	-43
3618.942	-45
3621.732	-43
3624.521	-40
3627.307	-44
3630.092	-45
3632.874	-46
3635.654	-47
3638.432	-44
3641.208	-47
3643.982	-42
3646.753	-51
3649.523	-52
3652.29	-53
3655.055	-51
3657.818	-56
3660.579	-58
3663.338	-54
3666.095	-59
3668.849	-66
3671.602	-58
3674.352	-58
3677.101	-63
3679.847	-57
3682.591	-60
3685.333	-58
3688.073	-68
3690.811	-59
3693.547	-64
3696.281	-59
3699.013	-62
3701.742	-70
3704.47	-59
3707.195	-65
3709.919	-65
3712.64	-65
3715.359	-68
3718.076	-70
3720.792	-69
3723.505	-69
3726.216	-67
3728.925	-77
3731.632	-70
3734.336	-73
3737.039	-69
3739.74	-73
3742.439	-80
3745.136	-76
3747.83	-74
3750.523	-71
3753.213	-74
3755.902	-72
3758.589	-71
3761.273	-70
3763.956	-74
3766.636	-65
3769.315	-70
3771.991	-70
3774.665	-79
3777.338	-73
3780.008	-74
3782.677	-83
3785.343	-74
3788.007	-80
3790.67	-75
3793.33	-73
3795.989	-79
3798.645	-78
3801.299	-76
3803.952	-77
3806.602	-77
3809.251	-76
3811.897	-79
3814.542	-76
3817.184	-78
3819.825	-75
3822.463	-76
3825.1	-73
3827.735	-84
3830.367	-78
3832.998	-82
3835.627	-79
3838.253	-79
3840.878	-75
3843.501	-76
3846.122	-82
3848.741	-79
3851.358	-78
3853.973	-74
3856.586	-74
3859.197	-78
3861.806	-77
3864.414	-83
3867.019	-78
3869.622	-71
3872.224	-65
3874.823	-61
3877.421	-56
3880.016	-46
3882.61	-32
3885.202	-31
3887.792	-39
3890.38	-51
3892.966	-60
3895.55	-73
3898.132	-75
3900.713	-83
3903.291	-82
3905.868	-76
3908.442	-77
3911.015	-81
3913.586	-82
3916.155	-79
3918.722	-78
3921.287	-78
3923.85	-74
3926.411	-80
3928.971	-83
3931.528	-77
3934.084	-80
3936.638	-74
3939.19	-86
3941.74	-77
3944.288	-78
3946.834	-82
3949.378	-80
3951.921	-82
3954.462	-80
3957	-77
3959.537	-72
3962.072	-79
3964.606	-73
3967.137	-77
3969.667	-78
3972.194	-74
3974.72	-71
3977.244	-71
3979.766	-74
3982.286	-77
3984.805	-87
3987.321	-76
3989.836	-70
3992.349	-79
3994.86	-81
3997.369	-80
3999.877	-85
4002.382	-77
4004.886	-79
4007.388	-74
4009.888	-77
4012.386	-81
4014.883	-76
4017.377	-70
4019.87	-73
4022.361	-82
4024.85	-72
4027.338	-78
4029.823	-75
4032.307	-77
4034.789	-76
4037.269	-78
4039.747	-76
4042.224	-77
4044.699	-81
4047.172	-81
4049.643	-86
4052.112	-82
4054.58	-80
4057.046	-76
4059.51	-80
4061.972	-78
4064.432	-77
4066.891	-76
4069.348	-72
4071.803	-68
4074.256	-76
4076.708	-81
4079.158	-80
4081.606	-76
4084.052	-76
4086.497	-69
4088.939	-74
4091.38	-84
4093.819	-82
4096.257	-81
4098.693	-81
4101.127	-75
4103.559	-83
4105.989	-11
4108.418	-13
4110.845	-20
4113.27	-14
4115.694	-8
4118.115	-9
4120.535	-77
4122.954	-74
4125.37	-82
4127.785	-82
4130.198	-76
4132.609	-85
4135.019	-82
4137.427	-83
4139.833	-82
4142.237	-86
