Data from 2018-3-7_conc=6_n=4_RamanShift_03.txt Node
Date: Wed Mar 07 13:06:52 IST 2018
User: aro
Spectrometer: QEPB0276
Trigger mode: 0
Integration Time (sec): 3.000000E1
Scans to average: 1
Electric dark correction enabled: true
Nonlinearity correction enabled: false
Boxcar width: 0
XAxis mode: Raman Shifts
Number of Pixels in Spectrum: 1044
>>>>>Begin Spectral Data<<<<<
160.701	4
166.742	17
172.777	51
178.805	156
184.826	399
190.841	869
196.849	1447
202.85	1914
208.845	2103
214.833	2092
220.815	2075
226.789	2064
232.758	2082
238.719	2057
244.674	2056
250.623	2048
256.565	2004
262.5	1969
268.429	1955
274.351	1939
280.267	1926
286.176	1928
292.079	1912
297.975	1914
303.865	1890
309.748	1884
315.625	1903
321.495	1889
327.359	1894
333.217	1901
339.068	1889
344.912	1889
350.751	1902
356.583	1895
362.408	1899
368.227	1918
374.04	1905
379.847	1912
385.647	1921
391.44	1937
397.228	1916
403.009	1965
408.784	1962
414.553	1963
420.315	1961
426.071	1970
431.821	1978
437.565	1976
443.302	1935
449.033	1952
454.758	1950
460.477	1938
466.189	1913
471.896	1913
477.596	1896
483.29	1890
488.978	1892
494.66	1892
500.335	1868
506.005	1797
511.668	1751
517.325	1705
522.977	1667
528.622	1613
534.261	1609
539.894	1561
545.521	1567
551.141	1545
556.756	1538
562.365	1530
567.968	1523
573.565	1513
579.155	1511
584.74	1510
590.319	1469
595.892	1493
601.459	1473
607.02	1482
612.575	1468
618.124	1454
623.667	1438
629.204	1430
634.735	1391
640.261	1414
645.781	1390
651.294	1382
656.802	1396
662.304	1377
667.8	1387
673.29	1376
678.775	1356
684.254	1363
689.726	1371
695.193	1358
700.655	1346
706.11	1334
711.56	1328
717.004	1319
722.442	1308
727.874	1304
733.301	1324
738.722	1303
744.137	1300
749.547	1304
754.951	1309
760.349	1282
765.741	1295
771.128	1305
776.509	1305
781.885	1328
787.254	1335
792.618	1319
797.977	1317
803.33	1300
808.677	1297
814.019	1286
819.355	1283
824.686	1259
830.011	1268
835.33	1260
840.644	1267
845.952	1252
851.255	1254
856.552	1260
861.844	1240
867.13	1219
872.41	1228
877.686	1222
882.955	1205
888.219	1203
893.478	1186
898.731	1145
903.979	1140
909.221	1160
914.458	1139
919.69	1138
924.916	1151
930.136	1154
935.351	1143
940.561	1156
945.766	1142
950.965	1143
956.158	1136
961.347	1119
966.529	1089
971.707	1095
976.879	1076
982.046	1068
987.208	1067
992.364	1049
997.515	1066
1002.66	1059
1007.801	1085
1012.936	1090
1018.066	1101
1023.19	1085
1028.309	1090
1033.423	1084
1038.532	1086
1043.636	1073
1048.734	1086
1053.827	1045
1058.915	1037
1063.998	1032
1069.075	1020
1074.147	1028
1079.214	1015
1084.276	1047
1089.333	1035
1094.385	1051
1099.431	1028
1104.472	1035
1109.509	1036
1114.54	1011
1119.565	1009
1124.586	984
1129.602	977
1134.613	971
1139.618	973
1144.619	953
1149.614	970
1154.604	955
1159.589	983
1164.57	980
1169.545	965
1174.515	978
1179.48	964
1184.44	975
1189.395	958
1194.345	948
1199.29	946
1204.23	939
1209.165	938
1214.095	955
1219.021	952
1223.941	954
1228.856	950
1233.766	974
1238.672	956
1243.572	962
1248.467	948
1253.358	951
1258.244	929
1263.124	929
1268	895
1272.871	884
1277.737	886
1282.599	877
1287.455	877
1292.306	869
1297.153	879
1301.995	897
1306.832	895
1311.664	894
1316.491	902
1321.314	902
1326.132	898
1330.945	863
1335.753	867
1340.556	846
1345.354	838
1350.148	819
1354.937	804
1359.722	783
1364.501	765
1369.276	749
1374.046	741
1378.811	722
1383.572	725
1388.327	717
1393.079	715
1397.825	724
1402.567	735
1407.304	728
1412.036	745
1416.764	730
1421.487	741
1426.205	741
1430.919	736
1435.628	737
1440.333	753
1445.032	748
1449.727	771
1454.418	756
1459.104	750
1463.785	739
1468.462	735
1473.134	724
1477.802	696
1482.465	677
1487.123	664
1491.777	662
1496.426	658
1501.071	637
1505.711	634
1510.347	638
1514.978	612
1519.604	608
1524.226	614
1528.844	612
1533.457	591
1538.065	600
1542.669	603
1547.269	592
1551.864	602
1556.454	619
1561.041	626
1565.622	640
1570.199	633
1574.772	639
1579.34	635
1583.904	655
1588.464	671
1593.019	669
1597.569	665
1602.115	668
1606.657	671
1611.195	659
1615.728	666
1620.256	655
1624.78	652
1629.3	656
1633.816	654
1638.327	670
1642.834	665
1647.336	662
1651.834	661
1656.328	662
1660.817	655
1665.302	655
1669.783	632
1674.259	616
1678.732	597
1683.199	586
1687.663	562
1692.122	536
1696.577	506
1701.028	488
1705.474	450
1709.917	438
1714.355	436
1718.788	434
1723.218	439
1727.643	428
1732.064	434
1736.481	433
1740.893	424
1745.301	421
1749.705	408
1754.105	393
1758.501	391
1762.893	390
1767.28	371
1771.663	379
1776.042	372
1780.417	347
1784.787	349
1789.154	344
1793.516	328
1797.874	331
1802.228	328
1806.578	311
1810.924	309
1815.266	324
1819.603	318
1823.937	324
1828.266	323
1832.591	332
1836.913	329
1841.23	327
1845.543	321
1849.852	322
1854.156	332
1858.457	329
1862.754	340
1867.047	323
1871.335	327
1875.62	325
1879.9	334
1884.177	321
1888.449	320
1892.718	314
1896.982	322
1901.243	300
1905.499	297
1909.752	296
1914	278
1918.245	276
1922.485	271
1926.722	273
1930.954	266
1935.183	270
1939.408	255
1943.628	254
1947.845	248
1952.058	248
1956.267	248
1960.472	246
1964.673	236
1968.87	235
1973.063	240
1977.252	239
1981.438	251
1985.619	234
1989.797	247
1993.971	250
1998.14	244
2002.306	253
2006.469	263
2010.627	252
2014.781	264
2018.932	251
2023.078	255
2027.221	249
2031.36	254
2035.495	238
2039.627	233
2043.754	233
2047.878	240
2051.998	238
2056.114	232
2060.226	229
2064.334	223
2068.439	226
2072.54	221
2076.637	226
2080.73	218
2084.82	225
2088.906	216
2092.988	212
2097.066	212
2101.14	208
2105.211	206
2109.278	205
2113.342	187
2117.401	188
2121.457	198
2125.509	189
2129.558	196
2133.602	189
2137.643	196
2141.681	192
2145.714	194
2149.744	197
2153.77	199
2157.793	200
2161.812	193
2165.827	199
2169.838	189
2173.846	185
2177.851	188
2181.851	193
2185.848	190
2189.841	189
2193.831	182
2197.817	185
2201.799	179
2205.778	180
2209.753	189
2213.725	185
2217.693	185
2221.657	178
2225.618	177
2229.575	174
2233.529	167
2237.479	171
2241.425	161
2245.368	173
2249.307	168
2253.243	162
2257.175	162
2261.104	153
2265.029	156
2268.95	161
2272.868	161
2276.783	154
2280.694	155
2284.601	149
2288.505	148
2292.405	149
2296.302	153
2300.195	147
2304.085	146
2307.971	144
2311.854	134
2315.734	127
2319.609	137
2323.482	132
2327.351	144
2331.216	141
2335.078	151
2338.937	149
2342.792	143
2346.643	139
2350.492	140
2354.336	138
2358.178	129
2362.015	143
2365.85	141
2369.681	143
2373.508	144
2377.333	138
2381.153	133
2384.971	140
2388.785	136
2392.595	138
2396.402	138
2400.206	138
2404.007	136
2407.804	137
2411.597	130
2415.388	134
2419.174	142
2422.958	127
2426.738	138
2430.515	131
2434.289	126
2438.059	128
2441.825	124
2445.589	125
2449.349	115
2453.106	124
2456.859	118
2460.61	120
2464.356	117
2468.1	113
2471.84	112
2475.577	117
2479.311	111
2483.041	110
2486.768	108
2490.492	111
2494.213	110
2497.93	119
2501.644	106
2505.355	99
2509.062	101
2512.766	100
2516.467	102
2520.165	102
2523.859	111
2527.551	97
2531.239	101
2534.923	89
2538.605	88
2542.283	92
2545.958	102
2549.63	95
2553.299	85
2556.964	85
2560.626	90
2564.285	81
2567.941	80
2571.594	78
2575.243	76
2578.89	77
2582.533	70
2586.173	77
2589.809	81
2593.443	78
2597.073	77
2600.701	77
2604.325	64
2607.946	61
2611.564	76
2615.178	74
2618.79	72
2622.398	75
2626.004	73
2629.606	69
2633.205	70
2636.801	67
2640.394	74
2643.983	64
2647.57	68
2651.153	62
2654.734	62
2658.311	59
2661.885	57
2665.456	69
2669.025	61
2672.589	60
2676.151	62
2679.71	60
2683.266	61
2686.819	62
2690.368	57
2693.915	56
2697.458	57
2700.999	58
2704.536	62
2708.071	50
2711.602	51
2715.13	44
2718.656	45
2722.178	41
2725.697	44
2729.214	39
2732.727	41
2736.237	47
2739.744	37
2743.249	38
2746.75	41
2750.248	35
2753.743	40
2757.236	31
2760.725	32
2764.211	24
2767.695	28
2771.175	28
2774.652	23
2778.127	30
2781.598	25
2785.067	31
2788.532	25
2791.995	34
2795.455	27
2798.911	27
2802.365	34
2805.816	30
2809.264	29
2812.709	27
2816.151	30
2819.59	43
2823.026	33
2826.46	35
2829.89	34
2833.318	34
2836.742	34
2840.164	29
2843.583	33
2846.999	39
2850.412	30
2853.822	38
2857.229	38
2860.634	26
2864.035	37
2867.434	34
2870.83	41
2874.223	41
2877.613	40
2881	41
2884.385	45
2887.766	51
2891.145	39
2894.521	46
2897.894	41
2901.264	45
2904.631	43
2907.996	50
2911.358	56
2914.717	53
2918.073	48
2921.426	51
2924.777	57
2928.124	51
2931.469	58
2934.811	67
2938.15	64
2941.487	67
2944.821	57
2948.152	66
2951.48	60
2954.805	68
2958.128	62
2961.447	63
2964.765	56
2968.079	57
2971.39	58
2974.699	58
2978.005	62
2981.308	52
2984.609	51
2987.907	56
2991.202	59
2994.494	60
2997.784	53
3001.07	58
3004.355	52
3007.636	59
3010.915	64
3014.191	54
3017.464	67
3020.734	68
3024.002	73
3027.267	64
3030.53	70
3033.789	73
3037.046	68
3040.301	68
3043.552	73
3046.801	82
3050.048	84
3053.291	89
3056.532	93
3059.771	95
3063.006	100
3066.239	105
3069.469	114
3072.697	109
3075.922	120
3079.144	107
3082.364	119
3085.581	115
3088.795	124
3092.007	126
3095.216	126
3098.423	130
3101.627	134
3104.828	144
3108.026	136
3111.222	135
3114.416	151
3117.607	153
3120.795	154
3123.98	152
3127.163	171
3130.344	171
3133.521	159
3136.696	172
3139.869	179
3143.039	181
3146.206	183
3149.371	184
3152.533	192
3155.693	199
3158.85	197
3162.005	197
3165.157	190
3168.306	196
3171.453	189
3174.597	188
3177.739	189
3180.878	198
3184.014	181
3187.149	197
3190.28	198
3193.409	200
3196.536	192
3199.659	199
3202.781	204
3205.9	191
3209.016	194
3212.13	194
3215.241	199
3218.35	195
3221.456	197
3224.56	188
3227.661	185
3230.76	180
3233.856	181
3236.95	171
3240.041	161
3243.13	176
3246.216	162
3249.3	159
3252.382	164
3255.46	157
3258.537	157
3261.611	146
3264.682	154
3267.751	155
3270.818	149
3273.882	154
3276.943	150
3280.002	148
3283.059	147
3286.113	142
3289.165	138
3292.214	141
3295.261	144
3298.306	138
3301.348	134
3304.387	137
3307.425	140
3310.459	134
3313.492	132
3316.521	127
3319.549	136
3322.574	132
3325.597	133
3328.617	126
3331.635	130
3334.65	134
3337.663	132
3340.674	136
3343.682	132
3346.688	130
3349.691	136
3352.692	136
3355.691	132
3358.687	131
3361.681	132
3364.673	134
3367.662	124
3370.649	123
3373.633	128
3376.615	123
3379.595	121
3382.572	110
3385.547	118
3388.52	112
3391.49	107
3394.458	100
3397.424	109
3400.387	99
3403.348	99
3406.307	99
3409.263	105
3412.217	103
3415.168	102
3418.118	100
3421.065	95
3424.009	90
3426.951	92
3429.891	86
3432.829	90
3435.764	89
3438.697	83
3441.628	66
3444.557	72
3447.483	73
3450.407	61
3453.328	66
3456.247	60
3459.164	57
3462.079	50
3464.991	47
3467.902	47
3470.809	48
3473.715	44
3476.618	32
3479.519	35
3482.418	32
3485.315	32
3488.209	29
3491.101	24
3493.99	27
3496.878	22
3499.763	13
3502.646	19
3505.527	17
3508.405	16
3511.281	12
3514.155	8
3517.027	2
3519.897	7
3522.764	8
3525.629	7
3528.492	-5
3531.352	-12
3534.211	-8
3537.067	-11
3539.921	-12
3542.773	-18
3545.622	-15
3548.469	-15
3551.315	-6
3554.157	-16
3556.998	-17
3559.837	-15
3562.673	-19
3565.507	-19
3568.339	-18
3571.169	-23
3573.996	-16
3576.822	-28
3579.645	-28
3582.466	-32
3585.285	-32
3588.101	-36
3590.916	-26
3593.728	-33
3596.538	-33
3599.346	-36
3602.152	-33
3604.956	-30
3607.757	-30
3610.556	-33
3613.354	-41
3616.149	-35
3618.942	-35
3621.732	-36
3624.521	-34
3627.307	-37
3630.092	-42
3632.874	-40
3635.654	-42
3638.432	-39
3641.208	-37
3643.982	-36
3646.753	-46
3649.523	-41
3652.29	-47
3655.055	-43
3657.818	-48
3660.579	-46
3663.338	-43
3666.095	-43
3668.849	-47
3671.602	-47
3674.352	-43
3677.101	-42
3679.847	-47
3682.591	-54
3685.333	-45
3688.073	-49
3690.811	-48
3693.547	-50
3696.281	-47
3699.013	-52
3701.742	-55
3704.47	-46
3707.195	-52
3709.919	-49
3712.64	-54
3715.359	-52
3718.076	-55
3720.792	-51
3723.505	-52
3726.216	-52
3728.925	-52
3731.632	-47
3734.336	-51
3737.039	-44
3739.74	-54
3742.439	-58
3745.136	-54
3747.83	-52
3750.523	-58
3753.213	-59
3755.902	-57
3758.589	-54
3761.273	-57
3763.956	-59
3766.636	-51
3769.315	-51
3771.991	-52
3774.665	-56
3777.338	-61
3780.008	-55
3782.677	-60
3785.343	-55
3788.007	-55
3790.67	-57
3793.33	-51
3795.989	-57
3798.645	-54
3801.299	-52
3803.952	-54
3806.602	-56
3809.251	-58
3811.897	-63
3814.542	-55
3817.184	-58
3819.825	-52
3822.463	-58
3825.1	-56
3827.735	-62
3830.367	-58
3832.998	-60
3835.627	-59
3838.253	-50
3840.878	-50
3843.501	-52
3846.122	-58
3848.741	-59
3851.358	-52
3853.973	-48
3856.586	-55
3859.197	-52
3861.806	-58
3864.414	-54
3867.019	-59
3869.622	-51
3872.224	-44
3874.823	-40
3877.421	-38
3880.016	-28
3882.61	-8
3885.202	-9
3887.792	-9
3890.38	-31
3892.966	-47
3895.55	-48
3898.132	-54
3900.713	-54
3903.291	-57
3905.868	-52
3908.442	-56
3911.015	-52
3913.586	-59
3916.155	-55
3918.722	-58
3921.287	-59
3923.85	-45
3926.411	-57
3928.971	-66
3931.528	-58
3934.084	-60
3936.638	-59
3939.19	-65
3941.74	-55
3944.288	-57
3946.834	-55
3949.378	-55
3951.921	-58
3954.462	-58
3957	-50
3959.537	-45
3962.072	-46
3964.606	-53
3967.137	-54
3969.667	-54
3972.194	-54
3974.72	-50
3977.244	-53
3979.766	-61
3982.286	-61
3984.805	-68
3987.321	-57
3989.836	-55
3992.349	-58
3994.86	-57
3997.369	-56
3999.877	-61
4002.382	-58
4004.886	-57
4007.388	-57
4009.888	-55
4012.386	-48
4014.883	-56
4017.377	-53
4019.87	-51
4022.361	-54
4024.85	-54
4027.338	-61
4029.823	-63
4032.307	-59
4034.789	-54
4037.269	-60
4039.747	-58
4042.224	-55
4044.699	-59
4047.172	-58
4049.643	-57
4052.112	-58
4054.58	-58
4057.046	-53
4059.51	-53
4061.972	-59
4064.432	-52
4066.891	-55
4069.348	-53
4071.803	-49
4074.256	-58
4076.708	-57
4079.158	-64
4081.606	-61
4084.052	-60
4086.497	-49
4088.939	-56
4091.38	-60
4093.819	-65
4096.257	-58
4098.693	-58
4101.127	-52
4103.559	-58
4105.989	3
4108.418	-1
4110.845	0
4113.27	0
4115.694	5
4118.115	5
4120.535	-56
4122.954	-51
4125.37	-58
4127.785	-56
4130.198	-51
4132.609	-55
4135.019	-56
4137.427	-61
4139.833	-53
4142.237	-58
