Data from 2018-3-7_conc=0_n=8_RamanShift_03.txt Node
Date: Wed Mar 07 10:30:52 IST 2018
User: aro
Spectrometer: QEPB0276
Trigger mode: 0
Integration Time (sec): 3.000000E1
Scans to average: 1
Electric dark correction enabled: true
Nonlinearity correction enabled: false
Boxcar width: 0
XAxis mode: Raman Shifts
Number of Pixels in Spectrum: 1044
>>>>>Begin Spectral Data<<<<<
160.701	12
166.742	26
172.777	54
178.805	152
184.826	395
190.841	815
196.849	1334
202.85	1740
208.845	1884
214.833	1896
220.815	1902
226.789	1879
232.758	1899
238.719	1911
244.674	1910
250.623	1909
256.565	1910
262.5	1872
268.429	1863
274.351	1867
280.267	1864
286.176	1853
292.079	1866
297.975	1868
303.865	1882
309.748	1876
315.625	1879
321.495	1877
327.359	1887
333.217	1896
339.068	1922
344.912	1913
350.751	1918
356.583	1933
362.408	1929
368.227	1943
374.04	1953
379.847	1992
385.647	1955
391.44	1994
397.228	1986
403.009	2023
408.784	2014
414.553	2035
420.315	2051
426.071	2037
431.821	2048
437.565	2046
443.302	2035
449.033	2040
454.758	2026
460.477	1999
466.189	1982
471.896	1974
477.596	1939
483.29	1921
488.978	1928
494.66	1907
500.335	1861
506.005	1809
511.668	1706
517.325	1609
522.977	1520
528.622	1494
534.261	1441
539.894	1404
545.521	1388
551.141	1369
556.756	1363
562.365	1346
567.968	1317
573.565	1321
579.155	1294
584.74	1321
590.319	1306
595.892	1302
601.459	1304
607.02	1299
612.575	1298
618.124	1275
623.667	1267
629.204	1229
634.735	1217
640.261	1203
645.781	1186
651.294	1212
656.802	1184
662.304	1189
667.8	1180
673.29	1182
678.775	1173
684.254	1172
689.726	1160
695.193	1140
700.655	1140
706.11	1136
711.56	1128
717.004	1126
722.442	1114
727.874	1116
733.301	1112
738.722	1079
744.137	1102
749.547	1094
754.951	1104
760.349	1108
765.741	1091
771.128	1109
776.509	1122
781.885	1146
787.254	1163
792.618	1153
797.977	1150
803.33	1146
808.677	1126
814.019	1153
819.355	1128
824.686	1115
830.011	1095
835.33	1103
840.644	1105
845.952	1082
851.255	1073
856.552	1070
861.844	1059
867.13	1062
872.41	1064
877.686	1091
882.955	1108
888.219	1102
893.478	1058
898.731	1009
903.979	968
909.221	981
914.458	964
919.69	957
924.916	960
930.136	956
935.351	946
940.561	950
945.766	951
950.965	946
956.158	936
961.347	923
966.529	923
971.707	897
976.879	896
982.046	888
987.208	869
992.364	867
997.515	869
1002.66	883
1007.801	904
1012.936	907
1018.066	925
1023.19	918
1028.309	914
1033.423	902
1038.532	918
1043.636	921
1048.734	922
1053.827	906
1058.915	908
1063.998	905
1069.075	891
1074.147	881
1079.214	896
1084.276	895
1089.333	902
1094.385	895
1099.431	892
1104.472	893
1109.509	884
1114.54	847
1119.565	843
1124.586	827
1129.602	818
1134.613	807
1139.618	804
1144.619	787
1149.614	811
1154.604	798
1159.589	810
1164.57	808
1169.545	813
1174.515	801
1179.48	808
1184.44	801
1189.395	795
1194.345	784
1199.29	773
1204.23	793
1209.165	781
1214.095	787
1219.021	802
1223.941	794
1228.856	802
1233.766	804
1238.672	795
1243.572	786
1248.467	791
1253.358	774
1258.244	766
1263.124	747
1268	742
1272.871	735
1277.737	733
1282.599	725
1287.455	731
1292.306	732
1297.153	722
1301.995	737
1306.832	727
1311.664	750
1316.491	750
1321.314	722
1326.132	728
1330.945	714
1335.753	708
1340.556	674
1345.354	666
1350.148	662
1354.937	640
1359.722	634
1364.501	624
1369.276	602
1374.046	594
1378.811	600
1383.572	598
1388.327	602
1393.079	593
1397.825	605
1402.567	606
1407.304	612
1412.036	611
1416.764	621
1421.487	618
1426.205	621
1430.919	614
1435.628	622
1440.333	631
1445.032	642
1449.727	649
1454.418	659
1459.104	657
1463.785	640
1468.462	620
1473.134	603
1477.802	577
1482.465	558
1487.123	542
1491.777	529
1496.426	524
1501.071	518
1505.711	511
1510.347	502
1514.978	507
1519.604	507
1524.226	501
1528.844	497
1533.457	502
1538.065	505
1542.669	493
1547.269	489
1551.864	507
1556.454	518
1561.041	531
1565.622	528
1570.199	519
1574.772	522
1579.34	533
1583.904	538
1588.464	548
1593.019	536
1597.569	543
1602.115	539
1606.657	542
1611.195	545
1615.728	536
1620.256	531
1624.78	525
1629.3	519
1633.816	528
1638.327	536
1642.834	525
1647.336	525
1651.834	532
1656.328	524
1660.817	517
1665.302	517
1669.783	496
1674.259	487
1678.732	478
1683.199	450
1687.663	448
1692.122	423
1696.577	408
1701.028	384
1705.474	368
1709.917	360
1714.355	357
1718.788	348
1723.218	349
1727.643	352
1732.064	354
1736.481	353
1740.893	343
1745.301	342
1749.705	331
1754.105	322
1758.501	307
1762.893	306
1767.28	302
1771.663	302
1776.042	299
1780.417	288
1784.787	283
1789.154	272
1793.516	270
1797.874	264
1802.228	268
1806.578	263
1810.924	264
1815.266	249
1819.603	258
1823.937	264
1828.266	255
1832.591	269
1836.913	269
1841.23	268
1845.543	260
1849.852	265
1854.156	269
1858.457	269
1862.754	269
1867.047	270
1871.335	257
1875.62	263
1879.9	266
1884.177	252
1888.449	256
1892.718	256
1896.982	237
1901.243	234
1905.499	229
1909.752	224
1914	224
1918.245	220
1922.485	224
1926.722	206
1930.954	209
1935.183	207
1939.408	217
1943.628	209
1947.845	202
1952.058	211
1956.267	202
1960.472	213
1964.673	194
1968.87	195
1973.063	204
1977.252	199
1981.438	205
1985.619	203
1989.797	203
1993.971	204
1998.14	209
2002.306	200
2006.469	221
2010.627	195
2014.781	198
2018.932	195
2023.078	200
2027.221	200
2031.36	195
2035.495	194
2039.627	178
2043.754	192
2047.878	183
2051.998	190
2056.114	177
2060.226	177
2064.334	173
2068.439	167
2072.54	166
2076.637	176
2080.73	174
2084.82	170
2088.906	169
2092.988	161
2097.066	169
2101.14	156
2105.211	166
2109.278	161
2113.342	156
2117.401	158
2121.457	157
2125.509	153
2129.558	153
2133.602	156
2137.643	160
2141.681	147
2145.714	155
2149.744	152
2153.77	158
2157.793	161
2161.812	163
2165.827	157
2169.838	159
2173.846	148
2177.851	146
2181.851	144
2185.848	147
2189.841	148
2193.831	133
2197.817	140
2201.799	142
2205.778	142
2209.753	140
2213.725	136
2217.693	148
2221.657	137
2225.618	133
2229.575	129
2233.529	131
2237.479	137
2241.425	131
2245.368	134
2249.307	133
2253.243	126
2257.175	121
2261.104	115
2265.029	126
2268.95	125
2272.868	125
2276.783	110
2280.694	114
2284.601	112
2288.505	113
2292.405	109
2296.302	114
2300.195	110
2304.085	107
2307.971	103
2311.854	101
2315.734	100
2319.609	111
2323.482	114
2327.351	115
2331.216	123
2335.078	142
2338.937	125
2342.792	108
2346.643	110
2350.492	113
2354.336	109
2358.178	96
2362.015	106
2365.85	104
2369.681	111
2373.508	105
2377.333	105
2381.153	105
2384.971	100
2388.785	103
2392.595	106
2396.402	107
2400.206	100
2404.007	104
2407.804	103
2411.597	96
2415.388	95
2419.174	110
2422.958	100
2426.738	102
2430.515	97
2434.289	101
2438.059	87
2441.825	89
2445.589	95
2449.349	88
2453.106	91
2456.859	89
2460.61	92
2464.356	91
2468.1	89
2471.84	84
2475.577	77
2479.311	83
2483.041	81
2486.768	72
2490.492	82
2494.213	81
2497.93	78
2501.644	80
2505.355	72
2509.062	73
2512.766	77
2516.467	67
2520.165	69
2523.859	70
2527.551	69
2531.239	71
2534.923	63
2538.605	69
2542.283	58
2545.958	62
2549.63	61
2553.299	54
2556.964	61
2560.626	56
2564.285	60
2567.941	55
2571.594	56
2575.243	57
2578.89	53
2582.533	53
2586.173	47
2589.809	52
2593.443	58
2597.073	48
2600.701	54
2604.325	51
2607.946	48
2611.564	58
2615.178	50
2618.79	43
2622.398	48
2626.004	48
2629.606	43
2633.205	41
2636.801	48
2640.394	52
2643.983	43
2647.57	45
2651.153	45
2654.734	40
2658.311	43
2661.885	41
2665.456	42
2669.025	49
2672.589	40
2676.151	40
2679.71	37
2683.266	40
2686.819	47
2690.368	34
2693.915	37
2697.458	34
2700.999	38
2704.536	38
2708.071	38
2711.602	27
2715.13	24
2718.656	33
2722.178	30
2725.697	22
2729.214	36
2732.727	30
2736.237	25
2739.744	29
2743.249	26
2746.75	28
2750.248	22
2753.743	19
2757.236	20
2760.725	16
2764.211	18
2767.695	14
2771.175	18
2774.652	19
2778.127	20
2781.598	16
2785.067	13
2788.532	15
2791.995	19
2795.455	14
2798.911	15
2802.365	25
2805.816	19
2809.264	20
2812.709	14
2816.151	18
2819.59	26
2823.026	15
2826.46	16
2829.89	16
2833.318	23
2836.742	29
2840.164	19
2843.583	19
2846.999	30
2850.412	23
2853.822	22
2857.229	30
2860.634	23
2864.035	29
2867.434	41
2870.83	37
2874.223	35
2877.613	44
2881	38
2884.385	45
2887.766	51
2891.145	49
2894.521	53
2897.894	50
2901.264	53
2904.631	45
2907.996	49
2911.358	50
2914.717	50
2918.073	46
2921.426	50
2924.777	63
2928.124	67
2931.469	70
2934.811	80
2938.15	76
2941.487	81
2944.821	76
2948.152	75
2951.48	65
2954.805	58
2958.128	57
2961.447	60
2964.765	57
2968.079	51
2971.39	46
2974.699	46
2978.005	55
2981.308	49
2984.609	48
2987.907	53
2991.202	51
2994.494	49
2997.784	40
3001.07	44
3004.355	43
3007.636	41
3010.915	49
3014.191	44
3017.464	46
3020.734	50
3024.002	51
3027.267	54
3030.53	60
3033.789	48
3037.046	47
3040.301	43
3043.552	56
3046.801	55
3050.048	56
3053.291	63
3056.532	59
3059.771	59
3063.006	63
3066.239	70
3069.469	72
3072.697	75
3075.922	75
3079.144	76
3082.364	82
3085.581	80
3088.795	84
3092.007	91
3095.216	93
3098.423	89
3101.627	88
3104.828	101
3108.026	98
3111.222	103
3114.416	101
3117.607	111
3120.795	108
3123.98	100
3127.163	113
3130.344	110
3133.521	120
3136.696	123
3139.869	128
3143.039	132
3146.206	126
3149.371	130
3152.533	137
3155.693	132
3158.85	132
3162.005	142
3165.157	142
3168.306	138
3171.453	135
3174.597	136
3177.739	142
3180.878	141
3184.014	121
3187.149	130
3190.28	137
3193.409	141
3196.536	134
3199.659	145
3202.781	139
3205.9	131
3209.016	136
3212.13	133
3215.241	135
3218.35	128
3221.456	130
3224.56	126
3227.661	122
3230.76	120
3233.856	122
3236.95	116
3240.041	116
3243.13	116
3246.216	108
3249.3	104
3252.382	108
3255.46	106
3258.537	102
3261.611	99
3264.682	102
3267.751	99
3270.818	94
3273.882	99
3276.943	97
3280.002	98
3283.059	93
3286.113	85
3289.165	90
3292.214	88
3295.261	95
3298.306	86
3301.348	92
3304.387	83
3307.425	83
3310.459	83
3313.492	86
3316.521	81
3319.549	98
3322.574	85
3325.597	80
3328.617	90
3331.635	87
3334.65	91
3337.663	76
3340.674	85
3343.682	80
3346.688	82
3349.691	87
3352.692	86
3355.691	94
3358.687	88
3361.681	85
3364.673	83
3367.662	81
3370.649	75
3373.633	77
3376.615	74
3379.595	72
3382.572	70
3385.547	75
3388.52	71
3391.49	73
3394.458	59
3397.424	67
3400.387	62
3403.348	56
3406.307	47
3409.263	62
3412.217	61
3415.168	58
3418.118	58
3421.065	56
3424.009	52
3426.951	50
3429.891	42
3432.829	47
3435.764	54
3438.697	49
3441.628	36
3444.557	43
3447.483	39
3450.407	30
3453.328	31
3456.247	29
3459.164	23
3462.079	24
3464.991	23
3467.902	22
3470.809	20
3473.715	15
3476.618	4
3479.519	6
3482.418	3
3485.315	3
3488.209	2
3491.101	-3
3493.99	3
3496.878	6
3499.763	-3
3502.646	-2
3505.527	-5
3508.405	-8
3511.281	-5
3514.155	-13
3517.027	-17
3519.897	-7
3522.764	-12
3525.629	-11
3528.492	-19
3531.352	-16
3534.211	-21
3537.067	-24
3539.921	-24
3542.773	-32
3545.622	-29
3548.469	-25
3551.315	-21
3554.157	-25
3556.998	-26
3559.837	-29
3562.673	-30
3565.507	-27
3568.339	-27
3571.169	-36
3573.996	-34
3576.822	-44
3579.645	-39
3582.466	-31
3585.285	-35
3588.101	-38
3590.916	-30
3593.728	-42
3596.538	-38
3599.346	-44
3602.152	-39
3604.956	-39
3607.757	-34
3610.556	-39
3613.354	-47
3616.149	-42
3618.942	-41
3621.732	-44
3624.521	-43
3627.307	-46
3630.092	-47
3632.874	-44
3635.654	-46
3638.432	-46
3641.208	-47
3643.982	-44
3646.753	-48
3649.523	-45
3652.29	-48
3655.055	-51
3657.818	-51
3660.579	-48
3663.338	-40
3666.095	-47
3668.849	-46
3671.602	-44
3674.352	-47
3677.101	-51
3679.847	-47
3682.591	-52
3685.333	-51
3688.073	-51
3690.811	-49
3693.547	-47
3696.281	-49
3699.013	-51
3701.742	-53
3704.47	-50
3707.195	-54
3709.919	-52
3712.64	-57
3715.359	-51
3718.076	-55
3720.792	-55
3723.505	-56
3726.216	-49
3728.925	-59
3731.632	-51
3734.336	-54
3737.039	-55
3739.74	-62
3742.439	-55
3745.136	-57
3747.83	-52
3750.523	-54
3753.213	-57
3755.902	-57
3758.589	-57
3761.273	-60
3763.956	-59
3766.636	-47
3769.315	-51
3771.991	-54
3774.665	-57
3777.338	-52
3780.008	-58
3782.677	-60
3785.343	-56
3788.007	-60
3790.67	-60
3793.33	-53
3795.989	-61
3798.645	-61
3801.299	-53
3803.952	-60
3806.602	-57
3809.251	-60
3811.897	-61
3814.542	-62
3817.184	-56
3819.825	-51
3822.463	-56
3825.1	-56
3827.735	-64
3830.367	-57
3832.998	-62
3835.627	-61
3838.253	-58
3840.878	-53
3843.501	-53
3846.122	-60
3848.741	-55
3851.358	-56
3853.973	-52
3856.586	-57
3859.197	-60
3861.806	-62
3864.414	-63
3867.019	-58
3869.622	-50
3872.224	-43
3874.823	-38
3877.421	-33
3880.016	-19
3882.61	0
3885.202	-6
3887.792	-8
3890.38	-30
3892.966	-43
3895.55	-45
3898.132	-54
3900.713	-60
3903.291	-57
3905.868	-54
3908.442	-59
3911.015	-58
3913.586	-67
3916.155	-56
3918.722	-60
3921.287	-55
3923.85	-50
3926.411	-60
3928.971	-65
3931.528	-61
3934.084	-60
3936.638	-61
3939.19	-66
3941.74	-57
3944.288	-55
3946.834	-58
3949.378	-58
3951.921	-64
3954.462	-63
3957	-51
3959.537	-52
3962.072	-56
3964.606	-56
3967.137	-57
3969.667	-61
3972.194	-51
3974.72	-49
3977.244	-54
3979.766	-59
3982.286	-62
3984.805	-65
3987.321	-54
3989.836	-55
3992.349	-53
3994.86	-58
3997.369	-60
3999.877	-55
4002.382	-62
4004.886	-59
4007.388	-60
4009.888	-54
4012.386	-53
4014.883	-56
4017.377	-49
4019.87	-57
4022.361	-57
4024.85	-56
4027.338	-62
4029.823	-62
4032.307	-62
4034.789	-58
4037.269	-60
4039.747	-57
4042.224	-58
4044.699	-62
4047.172	-55
4049.643	-59
4052.112	-57
4054.58	-56
4057.046	-53
4059.51	-62
4061.972	-58
4064.432	-56
4066.891	-57
4069.348	-58
4071.803	-51
4074.256	-53
4076.708	-58
4079.158	-59
4081.606	-57
4084.052	-52
4086.497	-46
4088.939	-58
4091.38	-64
4093.819	-65
4096.257	-60
4098.693	-63
4101.127	-56
4103.559	-66
4105.989	22
4108.418	19
4110.845	11
4113.27	5
4115.694	10
4118.115	14
4120.535	-61
4122.954	-61
4125.37	-56
4127.785	-52
4130.198	-54
4132.609	-63
4135.019	-62
4137.427	-63
4139.833	-60
4142.237	-59
