Data from 2018-3-7_conc=2_n=10_RamanShift_04.txt Node
Date: Wed Mar 07 11:09:22 IST 2018
User: aro
Spectrometer: QEPB0276
Trigger mode: 0
Integration Time (sec): 3.000000E1
Scans to average: 1
Electric dark correction enabled: true
Nonlinearity correction enabled: false
Boxcar width: 0
XAxis mode: Raman Shifts
Number of Pixels in Spectrum: 1044
>>>>>Begin Spectral Data<<<<<
160.701	8
166.742	17
172.777	42
178.805	140
184.826	347
190.841	731
196.849	1192
202.85	1549
208.845	1696
214.833	1685
220.815	1678
226.789	1662
232.758	1670
238.719	1691
244.674	1691
250.623	1677
256.565	1665
262.5	1641
268.429	1632
274.351	1623
280.267	1617
286.176	1615
292.079	1636
297.975	1621
303.865	1625
309.748	1635
315.625	1627
321.495	1629
327.359	1627
333.217	1637
339.068	1645
344.912	1664
350.751	1656
356.583	1650
362.408	1652
368.227	1665
374.04	1676
379.847	1685
385.647	1686
391.44	1708
397.228	1692
403.009	1721
408.784	1726
414.553	1752
420.315	1739
426.071	1732
431.821	1734
437.565	1731
443.302	1717
449.033	1734
454.758	1709
460.477	1695
466.189	1674
471.896	1686
477.596	1682
483.29	1658
488.978	1662
494.66	1636
500.335	1614
506.005	1550
511.668	1473
517.325	1418
522.977	1367
528.622	1325
534.261	1317
539.894	1267
545.521	1262
551.141	1245
556.756	1219
562.365	1224
567.968	1224
573.565	1196
579.155	1198
584.74	1182
590.319	1179
595.892	1207
601.459	1174
607.02	1174
612.575	1170
618.124	1154
623.667	1141
629.204	1121
634.735	1124
640.261	1086
645.781	1099
651.294	1105
656.802	1088
662.304	1085
667.8	1080
673.29	1075
678.775	1082
684.254	1076
689.726	1065
695.193	1070
700.655	1055
706.11	1048
711.56	1045
717.004	1026
722.442	1031
727.874	1012
733.301	1035
738.722	1009
744.137	1013
749.547	1022
754.951	1021
760.349	1014
765.741	1027
771.128	1020
776.509	1049
781.885	1054
787.254	1054
792.618	1054
797.977	1064
803.33	1039
808.677	1041
814.019	1029
819.355	1025
824.686	1002
830.011	1007
835.33	995
840.644	987
845.952	998
851.255	981
856.552	986
861.844	965
867.13	947
872.41	952
877.686	949
882.955	938
888.219	939
893.478	936
898.731	916
903.979	886
909.221	891
914.458	887
919.69	894
924.916	888
930.136	881
935.351	881
940.561	897
945.766	879
950.965	878
956.158	879
961.347	854
966.529	853
971.707	836
976.879	831
982.046	818
987.208	811
992.364	809
997.515	814
1002.66	817
1007.801	829
1012.936	841
1018.066	833
1023.19	845
1028.309	842
1033.423	835
1038.532	837
1043.636	831
1048.734	827
1053.827	811
1058.915	820
1063.998	802
1069.075	792
1074.147	794
1079.214	809
1084.276	812
1089.333	794
1094.385	817
1099.431	797
1104.472	798
1109.509	796
1114.54	789
1119.565	784
1124.586	769
1129.602	752
1134.613	755
1139.618	739
1144.619	735
1149.614	745
1154.604	746
1159.589	754
1164.57	752
1169.545	749
1174.515	750
1179.48	755
1184.44	755
1189.395	732
1194.345	731
1199.29	719
1204.23	728
1209.165	721
1214.095	733
1219.021	731
1223.941	739
1228.856	744
1233.766	745
1238.672	747
1243.572	733
1248.467	742
1253.358	729
1258.244	719
1263.124	695
1268	684
1272.871	680
1277.737	682
1282.599	680
1287.455	675
1292.306	665
1297.153	675
1301.995	671
1306.832	684
1311.664	683
1316.491	686
1321.314	673
1326.132	680
1330.945	665
1335.753	658
1340.556	642
1345.354	626
1350.148	618
1354.937	609
1359.722	584
1364.501	583
1369.276	578
1374.046	568
1378.811	563
1383.572	554
1388.327	555
1393.079	557
1397.825	544
1402.567	560
1407.304	571
1412.036	567
1416.764	558
1421.487	575
1426.205	561
1430.919	564
1435.628	569
1440.333	582
1445.032	581
1449.727	591
1454.418	591
1459.104	576
1463.785	564
1468.462	557
1473.134	552
1477.802	529
1482.465	517
1487.123	522
1491.777	499
1496.426	499
1501.071	487
1505.711	481
1510.347	486
1514.978	476
1519.604	482
1524.226	468
1528.844	470
1533.457	459
1538.065	476
1542.669	462
1547.269	454
1551.864	470
1556.454	482
1561.041	484
1565.622	492
1570.199	490
1574.772	487
1579.34	481
1583.904	509
1588.464	511
1593.019	508
1597.569	513
1602.115	510
1606.657	502
1611.195	495
1615.728	508
1620.256	501
1624.78	502
1629.3	501
1633.816	507
1638.327	509
1642.834	502
1647.336	506
1651.834	507
1656.328	506
1660.817	491
1665.302	495
1669.783	480
1674.259	466
1678.732	470
1683.199	439
1687.663	428
1692.122	415
1696.577	395
1701.028	375
1705.474	352
1709.917	348
1714.355	351
1718.788	350
1723.218	348
1727.643	338
1732.064	339
1736.481	334
1740.893	332
1745.301	336
1749.705	323
1754.105	311
1758.501	296
1762.893	302
1767.28	297
1771.663	291
1776.042	286
1780.417	278
1784.787	277
1789.154	270
1793.516	254
1797.874	255
1802.228	257
1806.578	253
1810.924	257
1815.266	251
1819.603	254
1823.937	272
1828.266	258
1832.591	262
1836.913	255
1841.23	261
1845.543	254
1849.852	265
1854.156	264
1858.457	263
1862.754	260
1867.047	275
1871.335	253
1875.62	257
1879.9	266
1884.177	251
1888.449	249
1892.718	249
1896.982	248
1901.243	235
1905.499	234
1909.752	228
1914	225
1918.245	215
1922.485	209
1926.722	208
1930.954	217
1935.183	203
1939.408	216
1943.628	210
1947.845	208
1952.058	211
1956.267	194
1960.472	199
1964.673	197
1968.87	192
1973.063	197
1977.252	197
1981.438	190
1985.619	185
1989.797	194
1993.971	202
1998.14	198
2002.306	203
2006.469	207
2010.627	187
2014.781	200
2018.932	198
2023.078	192
2027.221	195
2031.36	197
2035.495	187
2039.627	180
2043.754	181
2047.878	181
2051.998	184
2056.114	178
2060.226	181
2064.334	188
2068.439	178
2072.54	173
2076.637	176
2080.73	178
2084.82	168
2088.906	171
2092.988	161
2097.066	158
2101.14	163
2105.211	159
2109.278	156
2113.342	149
2117.401	156
2121.457	155
2125.509	153
2129.558	157
2133.602	147
2137.643	157
2141.681	142
2145.714	155
2149.744	155
2153.77	156
2157.793	151
2161.812	161
2165.827	153
2169.838	145
2173.846	147
2177.851	145
2181.851	140
2185.848	149
2189.841	143
2193.831	142
2197.817	137
2201.799	145
2205.778	140
2209.753	139
2213.725	140
2217.693	146
2221.657	141
2225.618	135
2229.575	137
2233.529	134
2237.479	134
2241.425	123
2245.368	132
2249.307	134
2253.243	120
2257.175	121
2261.104	117
2265.029	117
2268.95	124
2272.868	123
2276.783	121
2280.694	111
2284.601	107
2288.505	116
2292.405	110
2296.302	113
2300.195	105
2304.085	107
2307.971	106
2311.854	96
2315.734	93
2319.609	104
2323.482	100
2327.351	109
2331.216	118
2335.078	126
2338.937	117
2342.792	111
2346.643	111
2350.492	105
2354.336	110
2358.178	98
2362.015	102
2365.85	94
2369.681	107
2373.508	105
2377.333	104
2381.153	105
2384.971	102
2388.785	102
2392.595	95
2396.402	98
2400.206	100
2404.007	99
2407.804	106
2411.597	93
2415.388	96
2419.174	100
2422.958	98
2426.738	93
2430.515	96
2434.289	91
2438.059	89
2441.825	91
2445.589	93
2449.349	90
2453.106	90
2456.859	85
2460.61	78
2464.356	86
2468.1	84
2471.84	74
2475.577	75
2479.311	77
2483.041	79
2486.768	77
2490.492	80
2494.213	85
2497.93	83
2501.644	79
2505.355	72
2509.062	73
2512.766	70
2516.467	65
2520.165	69
2523.859	70
2527.551	65
2531.239	66
2534.923	71
2538.605	64
2542.283	58
2545.958	64
2549.63	63
2553.299	62
2556.964	62
2560.626	62
2564.285	56
2567.941	49
2571.594	53
2575.243	57
2578.89	61
2582.533	53
2586.173	53
2589.809	57
2593.443	61
2597.073	50
2600.701	51
2604.325	46
2607.946	39
2611.564	46
2615.178	50
2618.79	50
2622.398	44
2626.004	47
2629.606	44
2633.205	43
2636.801	47
2640.394	54
2643.983	46
2647.57	43
2651.153	37
2654.734	40
2658.311	42
2661.885	44
2665.456	45
2669.025	44
2672.589	46
2676.151	40
2679.71	34
2683.266	34
2686.819	44
2690.368	42
2693.915	36
2697.458	30
2700.999	40
2704.536	43
2708.071	36
2711.602	32
2715.13	25
2718.656	29
2722.178	29
2725.697	24
2729.214	30
2732.727	32
2736.237	37
2739.744	22
2743.249	24
2746.75	29
2750.248	27
2753.743	24
2757.236	15
2760.725	17
2764.211	20
2767.695	11
2771.175	21
2774.652	16
2778.127	20
2781.598	16
2785.067	17
2788.532	20
2791.995	22
2795.455	17
2798.911	18
2802.365	16
2805.816	18
2809.264	22
2812.709	10
2816.151	28
2819.59	36
2823.026	21
2826.46	27
2829.89	25
2833.318	21
2836.742	25
2840.164	20
2843.583	15
2846.999	20
2850.412	17
2853.822	22
2857.229	20
2860.634	19
2864.035	21
2867.434	23
2870.83	24
2874.223	29
2877.613	29
2881	27
2884.385	36
2887.766	35
2891.145	26
2894.521	31
2897.894	32
2901.264	30
2904.631	20
2907.996	25
2911.358	33
2914.717	34
2918.073	34
2921.426	34
2924.777	37
2928.124	36
2931.469	45
2934.811	45
2938.15	46
2941.487	51
2944.821	42
2948.152	44
2951.48	39
2954.805	42
2958.128	35
2961.447	42
2964.765	35
2968.079	33
2971.39	33
2974.699	35
2978.005	46
2981.308	39
2984.609	37
2987.907	44
2991.202	39
2994.494	39
2997.784	30
3001.07	44
3004.355	37
3007.636	36
3010.915	39
3014.191	40
3017.464	45
3020.734	39
3024.002	48
3027.267	49
3030.53	53
3033.789	51
3037.046	46
3040.301	50
3043.552	47
3046.801	52
3050.048	52
3053.291	51
3056.532	60
3059.771	56
3063.006	66
3066.239	69
3069.469	70
3072.697	79
3075.922	84
3079.144	76
3082.364	82
3085.581	78
3088.795	85
3092.007	89
3095.216	86
3098.423	89
3101.627	84
3104.828	103
3108.026	96
3111.222	104
3114.416	107
3117.607	106
3120.795	103
3123.98	103
3127.163	122
3130.344	118
3133.521	117
3136.696	115
3139.869	128
3143.039	124
3146.206	121
3149.371	119
3152.533	137
3155.693	136
3158.85	134
3162.005	137
3165.157	138
3168.306	134
3171.453	135
3174.597	131
3177.739	138
3180.878	142
3184.014	126
3187.149	137
3190.28	127
3193.409	143
3196.536	126
3199.659	143
3202.781	141
3205.9	131
3209.016	134
3212.13	137
3215.241	143
3218.35	128
3221.456	131
3224.56	127
3227.661	128
3230.76	120
3233.856	117
3236.95	114
3240.041	114
3243.13	121
3246.216	108
3249.3	111
3252.382	109
3255.46	115
3258.537	108
3261.611	108
3264.682	107
3267.751	114
3270.818	95
3273.882	100
3276.943	92
3280.002	102
3283.059	101
3286.113	87
3289.165	90
3292.214	93
3295.261	99
3298.306	90
3301.348	90
3304.387	93
3307.425	91
3310.459	84
3313.492	93
3316.521	94
3319.549	93
3322.574	89
3325.597	79
3328.617	81
3331.635	90
3334.65	88
3337.663	73
3340.674	94
3343.682	86
3346.688	87
3349.691	92
3352.692	88
3355.691	90
3358.687	88
3361.681	83
3364.673	80
3367.662	86
3370.649	82
3373.633	76
3376.615	81
3379.595	78
3382.572	76
3385.547	79
3388.52	76
3391.49	71
3394.458	65
3397.424	72
3400.387	70
3403.348	64
3406.307	63
3409.263	63
3412.217	62
3415.168	59
3418.118	61
3421.065	62
3424.009	61
3426.951	51
3429.891	51
3432.829	51
3435.764	54
3438.697	49
3441.628	39
3444.557	46
3447.483	37
3450.407	30
3453.328	42
3456.247	31
3459.164	34
3462.079	32
3464.991	36
3467.902	28
3470.809	25
3473.715	28
3476.618	19
3479.519	10
3482.418	14
3485.315	19
3488.209	12
3491.101	6
3493.99	16
3496.878	9
3499.763	7
3502.646	5
3505.527	6
3508.405	2
3511.281	3
3514.155	3
3517.027	-2
3519.897	-3
3522.764	-6
3525.629	-5
3528.492	-10
3531.352	-15
3534.211	-15
3537.067	-13
3539.921	-8
3542.773	-19
3545.622	-16
3548.469	-15
3551.315	-14
3554.157	-20
3556.998	-18
3559.837	-25
3562.673	-21
3565.507	-26
3568.339	-24
3571.169	-28
3573.996	-23
3576.822	-26
3579.645	-28
3582.466	-33
3585.285	-26
3588.101	-31
3590.916	-25
3593.728	-29
3596.538	-35
3599.346	-35
3602.152	-32
3604.956	-28
3607.757	-32
3610.556	-35
3613.354	-33
3616.149	-37
3618.942	-36
3621.732	-33
3624.521	-27
3627.307	-31
3630.092	-36
3632.874	-39
3635.654	-37
3638.432	-39
3641.208	-32
3643.982	-40
3646.753	-43
3649.523	-42
3652.29	-38
3655.055	-39
3657.818	-41
3660.579	-44
3663.338	-35
3666.095	-37
3668.849	-45
3671.602	-41
3674.352	-39
3677.101	-39
3679.847	-43
3682.591	-47
3685.333	-41
3688.073	-49
3690.811	-39
3693.547	-41
3696.281	-34
3699.013	-42
3701.742	-49
3704.47	-41
3707.195	-44
3709.919	-44
3712.64	-41
3715.359	-46
3718.076	-47
3720.792	-47
3723.505	-47
3726.216	-45
3728.925	-50
3731.632	-40
3734.336	-46
3737.039	-40
3739.74	-45
3742.439	-46
3745.136	-47
3747.83	-47
3750.523	-50
3753.213	-60
3755.902	-46
3758.589	-46
3761.273	-47
3763.956	-49
3766.636	-45
3769.315	-38
3771.991	-45
3774.665	-47
3777.338	-46
3780.008	-46
3782.677	-52
3785.343	-51
3788.007	-53
3790.67	-52
3793.33	-48
3795.989	-49
3798.645	-46
3801.299	-45
3803.952	-46
3806.602	-43
3809.251	-50
3811.897	-54
3814.542	-52
3817.184	-48
3819.825	-47
3822.463	-54
3825.1	-42
3827.735	-51
3830.367	-48
3832.998	-53
3835.627	-48
3838.253	-45
3840.878	-42
3843.501	-42
3846.122	-47
3848.741	-48
3851.358	-52
3853.973	-48
3856.586	-48
3859.197	-52
3861.806	-51
3864.414	-53
3867.019	-46
3869.622	-41
3872.224	-34
3874.823	-28
3877.421	-25
3880.016	-11
3882.61	13
3885.202	12
3887.792	2
3890.38	-22
3892.966	-35
3895.55	-45
3898.132	-48
3900.713	-48
3903.291	-51
3905.868	-47
3908.442	-46
3911.015	-49
3913.586	-58
3916.155	-47
3918.722	-51
3921.287	-52
3923.85	-43
3926.411	-53
3928.971	-54
3931.528	-51
3934.084	-44
3936.638	-50
3939.19	-52
3941.74	-45
3944.288	-47
3946.834	-51
3949.378	-50
3951.921	-54
3954.462	-48
3957	-44
3959.537	-45
3962.072	-47
3964.606	-51
3967.137	-51
3969.667	-48
3972.194	-46
3974.72	-45
3977.244	-43
3979.766	-47
3982.286	-52
3984.805	-58
3987.321	-47
3989.836	-44
3992.349	-52
3994.86	-49
3997.369	-53
3999.877	-49
4002.382	-52
4004.886	-44
4007.388	-51
4009.888	-45
4012.386	-45
4014.883	-44
4017.377	-45
4019.87	-49
4022.361	-54
4024.85	-49
4027.338	-52
4029.823	-52
4032.307	-51
4034.789	-52
4037.269	-52
4039.747	-51
4042.224	-48
4044.699	-54
4047.172	-50
4049.643	-50
4052.112	-47
4054.58	-51
4057.046	-45
4059.51	-51
4061.972	-55
4064.432	-48
4066.891	-46
4069.348	-47
4071.803	-43
4074.256	-51
4076.708	-47
4079.158	-52
4081.606	-46
4084.052	-48
4086.497	-45
4088.939	-47
4091.38	-54
4093.819	-56
4096.257	-53
4098.693	-52
4101.127	-42
4103.559	-55
4105.989	16
4108.418	16
4110.845	9
4113.27	7
4115.694	11
4118.115	8
4120.535	-49
4122.954	-49
4125.37	-48
4127.785	-43
4130.198	-53
4132.609	-54
4135.019	-53
4137.427	-54
4139.833	-49
4142.237	-51
