Data from 2018-3-7_conc=2_n=8_RamanShift_03.txt Node
Date: Wed Mar 07 11:02:22 IST 2018
User: aro
Spectrometer: QEPB0276
Trigger mode: 0
Integration Time (sec): 3.000000E1
Scans to average: 1
Electric dark correction enabled: true
Nonlinearity correction enabled: false
Boxcar width: 0
XAxis mode: Raman Shifts
Number of Pixels in Spectrum: 1044
>>>>>Begin Spectral Data<<<<<
160.701	10
166.742	23
172.777	45
178.805	137
184.826	346
190.841	744
196.849	1199
202.85	1578
208.845	1716
214.833	1716
220.815	1699
226.789	1681
232.758	1704
238.719	1704
244.674	1709
250.623	1709
256.565	1679
262.5	1660
268.429	1651
274.351	1647
280.267	1620
286.176	1639
292.079	1634
297.975	1659
303.865	1633
309.748	1634
315.625	1646
321.495	1629
327.359	1637
333.217	1640
339.068	1650
344.912	1665
350.751	1650
356.583	1659
362.408	1656
368.227	1676
374.04	1678
379.847	1699
385.647	1697
391.44	1702
397.228	1699
403.009	1727
408.784	1743
414.553	1740
420.315	1737
426.071	1740
431.821	1733
437.565	1746
443.302	1753
449.033	1714
454.758	1734
460.477	1700
466.189	1699
471.896	1674
477.596	1676
483.29	1673
488.978	1656
494.66	1644
500.335	1616
506.005	1552
511.668	1480
517.325	1423
522.977	1388
528.622	1333
534.261	1288
539.894	1264
545.521	1265
551.141	1247
556.756	1228
562.365	1243
567.968	1228
573.565	1212
579.155	1211
584.74	1188
590.319	1210
595.892	1204
601.459	1182
607.02	1192
612.575	1175
618.124	1158
623.667	1148
629.204	1130
634.735	1119
640.261	1114
645.781	1103
651.294	1100
656.802	1083
662.304	1093
667.8	1103
673.29	1092
678.775	1087
684.254	1078
689.726	1071
695.193	1072
700.655	1065
706.11	1046
711.56	1052
717.004	1056
722.442	1039
727.874	1032
733.301	1034
738.722	1012
744.137	1033
749.547	1015
754.951	1016
760.349	1023
765.741	1026
771.128	1019
776.509	1032
781.885	1052
787.254	1052
792.618	1065
797.977	1043
803.33	1056
808.677	1037
814.019	1049
819.355	1030
824.686	1015
830.011	1005
835.33	1007
840.644	1015
845.952	995
851.255	986
856.552	995
861.844	969
867.13	967
872.41	969
877.686	963
882.955	959
888.219	960
893.478	935
898.731	909
903.979	900
909.221	902
914.458	889
919.69	885
924.916	898
930.136	889
935.351	902
940.561	882
945.766	902
950.965	891
956.158	891
961.347	870
966.529	859
971.707	842
976.879	834
982.046	841
987.208	835
992.364	827
997.515	831
1002.66	832
1007.801	845
1012.936	845
1018.066	859
1023.19	845
1028.309	849
1033.423	856
1038.532	854
1043.636	839
1048.734	843
1053.827	813
1058.915	822
1063.998	811
1069.075	803
1074.147	802
1079.214	813
1084.276	820
1089.333	822
1094.385	823
1099.431	813
1104.472	813
1109.509	807
1114.54	792
1119.565	778
1124.586	763
1129.602	754
1134.613	758
1139.618	759
1144.619	745
1149.614	756
1154.604	751
1159.589	759
1164.57	758
1169.545	755
1174.515	773
1179.48	755
1184.44	748
1189.395	742
1194.345	741
1199.29	730
1204.23	736
1209.165	727
1214.095	738
1219.021	741
1223.941	738
1228.856	751
1233.766	742
1238.672	752
1243.572	752
1248.467	740
1253.358	736
1258.244	724
1263.124	708
1268	696
1272.871	680
1277.737	680
1282.599	685
1287.455	676
1292.306	682
1297.153	682
1301.995	694
1306.832	688
1311.664	695
1316.491	685
1321.314	683
1326.132	683
1330.945	661
1335.753	652
1340.556	646
1345.354	627
1350.148	629
1354.937	604
1359.722	604
1364.501	580
1369.276	577
1374.046	563
1378.811	566
1383.572	557
1388.327	560
1393.079	564
1397.825	566
1402.567	575
1407.304	574
1412.036	570
1416.764	566
1421.487	566
1426.205	566
1430.919	566
1435.628	578
1440.333	587
1445.032	579
1449.727	595
1454.418	583
1459.104	589
1463.785	567
1468.462	553
1473.134	561
1477.802	530
1482.465	522
1487.123	504
1491.777	497
1496.426	496
1501.071	487
1505.711	487
1510.347	478
1514.978	478
1519.604	467
1524.226	481
1528.844	472
1533.457	462
1538.065	475
1542.669	464
1547.269	471
1551.864	476
1556.454	482
1561.041	500
1565.622	499
1570.199	488
1574.772	488
1579.34	497
1583.904	493
1588.464	526
1593.019	519
1597.569	520
1602.115	520
1606.657	512
1611.195	516
1615.728	508
1620.256	509
1624.78	496
1629.3	493
1633.816	500
1638.327	514
1642.834	506
1647.336	499
1651.834	500
1656.328	504
1660.817	495
1665.302	483
1669.783	490
1674.259	477
1678.732	448
1683.199	443
1687.663	432
1692.122	408
1696.577	394
1701.028	377
1705.474	358
1709.917	353
1714.355	345
1718.788	347
1723.218	334
1727.643	340
1732.064	341
1736.481	346
1740.893	322
1745.301	321
1749.705	326
1754.105	314
1758.501	303
1762.893	304
1767.28	283
1771.663	299
1776.042	293
1780.417	280
1784.787	285
1789.154	266
1793.516	256
1797.874	254
1802.228	256
1806.578	253
1810.924	249
1815.266	259
1819.603	253
1823.937	254
1828.266	251
1832.591	261
1836.913	254
1841.23	262
1845.543	250
1849.852	255
1854.156	265
1858.457	258
1862.754	259
1867.047	257
1871.335	260
1875.62	250
1879.9	256
1884.177	253
1888.449	258
1892.718	243
1896.982	235
1901.243	231
1905.499	238
1909.752	233
1914	225
1918.245	213
1922.485	210
1926.722	211
1930.954	201
1935.183	213
1939.408	208
1943.628	207
1947.845	204
1952.058	206
1956.267	201
1960.472	200
1964.673	192
1968.87	198
1973.063	196
1977.252	199
1981.438	191
1985.619	195
1989.797	195
1993.971	196
1998.14	202
2002.306	204
2006.469	207
2010.627	196
2014.781	201
2018.932	192
2023.078	199
2027.221	191
2031.36	191
2035.495	196
2039.627	181
2043.754	187
2047.878	177
2051.998	184
2056.114	186
2060.226	170
2064.334	169
2068.439	175
2072.54	165
2076.637	172
2080.73	171
2084.82	172
2088.906	171
2092.988	167
2097.066	157
2101.14	161
2105.211	156
2109.278	160
2113.342	146
2117.401	156
2121.457	148
2125.509	155
2129.558	148
2133.602	151
2137.643	154
2141.681	145
2145.714	156
2149.744	148
2153.77	153
2157.793	154
2161.812	157
2165.827	152
2169.838	146
2173.846	144
2177.851	143
2181.851	143
2185.848	141
2189.841	145
2193.831	142
2197.817	143
2201.799	142
2205.778	137
2209.753	133
2213.725	132
2217.693	138
2221.657	137
2225.618	131
2229.575	138
2233.529	134
2237.479	128
2241.425	132
2245.368	130
2249.307	128
2253.243	128
2257.175	123
2261.104	114
2265.029	121
2268.95	122
2272.868	118
2276.783	110
2280.694	104
2284.601	112
2288.505	115
2292.405	114
2296.302	118
2300.195	106
2304.085	108
2307.971	102
2311.854	98
2315.734	99
2319.609	109
2323.482	104
2327.351	105
2331.216	121
2335.078	133
2338.937	117
2342.792	117
2346.643	106
2350.492	108
2354.336	104
2358.178	98
2362.015	102
2365.85	103
2369.681	114
2373.508	107
2377.333	97
2381.153	107
2384.971	96
2388.785	98
2392.595	104
2396.402	108
2400.206	99
2404.007	98
2407.804	99
2411.597	98
2415.388	97
2419.174	104
2422.958	94
2426.738	99
2430.515	98
2434.289	94
2438.059	96
2441.825	93
2445.589	88
2449.349	92
2453.106	100
2456.859	88
2460.61	91
2464.356	89
2468.1	87
2471.84	76
2475.577	75
2479.311	78
2483.041	81
2486.768	74
2490.492	77
2494.213	77
2497.93	82
2501.644	76
2505.355	75
2509.062	72
2512.766	74
2516.467	67
2520.165	73
2523.859	73
2527.551	69
2531.239	67
2534.923	64
2538.605	61
2542.283	54
2545.958	61
2549.63	64
2553.299	61
2556.964	63
2560.626	63
2564.285	69
2567.941	56
2571.594	62
2575.243	54
2578.89	53
2582.533	48
2586.173	63
2589.809	61
2593.443	60
2597.073	53
2600.701	58
2604.325	43
2607.946	44
2611.564	57
2615.178	53
2618.79	54
2622.398	50
2626.004	44
2629.606	46
2633.205	48
2636.801	43
2640.394	47
2643.983	50
2647.57	42
2651.153	39
2654.734	49
2658.311	46
2661.885	48
2665.456	50
2669.025	45
2672.589	41
2676.151	44
2679.71	37
2683.266	39
2686.819	43
2690.368	35
2693.915	44
2697.458	31
2700.999	38
2704.536	37
2708.071	35
2711.602	37
2715.13	29
2718.656	34
2722.178	25
2725.697	24
2729.214	21
2732.727	32
2736.237	30
2739.744	27
2743.249	27
2746.75	25
2750.248	25
2753.743	20
2757.236	27
2760.725	25
2764.211	16
2767.695	17
2771.175	17
2774.652	15
2778.127	19
2781.598	12
2785.067	18
2788.532	13
2791.995	23
2795.455	15
2798.911	22
2802.365	21
2805.816	19
2809.264	22
2812.709	18
2816.151	23
2819.59	31
2823.026	16
2826.46	23
2829.89	16
2833.318	13
2836.742	25
2840.164	16
2843.583	20
2846.999	24
2850.412	21
2853.822	24
2857.229	24
2860.634	22
2864.035	24
2867.434	23
2870.83	31
2874.223	23
2877.613	20
2881	25
2884.385	31
2887.766	34
2891.145	24
2894.521	31
2897.894	34
2901.264	34
2904.631	25
2907.996	33
2911.358	36
2914.717	26
2918.073	32
2921.426	33
2924.777	37
2928.124	35
2931.469	42
2934.811	47
2938.15	53
2941.487	58
2944.821	44
2948.152	51
2951.48	46
2954.805	44
2958.128	35
2961.447	38
2964.765	40
2968.079	33
2971.39	42
2974.699	40
2978.005	47
2981.308	38
2984.609	38
2987.907	45
2991.202	34
2994.494	35
2997.784	32
3001.07	42
3004.355	34
3007.636	41
3010.915	45
3014.191	40
3017.464	42
3020.734	52
3024.002	46
3027.267	49
3030.53	50
3033.789	51
3037.046	45
3040.301	44
3043.552	51
3046.801	55
3050.048	52
3053.291	58
3056.532	57
3059.771	66
3063.006	67
3066.239	70
3069.469	73
3072.697	75
3075.922	77
3079.144	75
3082.364	78
3085.581	88
3088.795	84
3092.007	88
3095.216	92
3098.423	94
3101.627	87
3104.828	104
3108.026	101
3111.222	100
3114.416	103
3117.607	105
3120.795	109
3123.98	109
3127.163	118
3130.344	121
3133.521	119
3136.696	118
3139.869	129
3143.039	127
3146.206	131
3149.371	124
3152.533	134
3155.693	138
3158.85	138
3162.005	139
3165.157	137
3168.306	131
3171.453	129
3174.597	140
3177.739	137
3180.878	146
3184.014	128
3187.149	138
3190.28	143
3193.409	139
3196.536	134
3199.659	144
3202.781	136
3205.9	134
3209.016	131
3212.13	138
3215.241	133
3218.35	129
3221.456	133
3224.56	129
3227.661	132
3230.76	126
3233.856	122
3236.95	120
3240.041	118
3243.13	120
3246.216	112
3249.3	112
3252.382	110
3255.46	109
3258.537	106
3261.611	103
3264.682	108
3267.751	109
3270.818	98
3273.882	109
3276.943	104
3280.002	104
3283.059	98
3286.113	97
3289.165	93
3292.214	95
3295.261	98
3298.306	97
3301.348	99
3304.387	97
3307.425	94
3310.459	89
3313.492	88
3316.521	94
3319.549	99
3322.574	89
3325.597	89
3328.617	88
3331.635	97
3334.65	87
3337.663	81
3340.674	92
3343.682	93
3346.688	89
3349.691	93
3352.692	85
3355.691	97
3358.687	89
3361.681	86
3364.673	83
3367.662	88
3370.649	85
3373.633	75
3376.615	77
3379.595	70
3382.572	71
3385.547	81
3388.52	74
3391.49	69
3394.458	62
3397.424	73
3400.387	65
3403.348	59
3406.307	61
3409.263	63
3412.217	58
3415.168	72
3418.118	56
3421.065	56
3424.009	57
3426.951	53
3429.891	58
3432.829	55
3435.764	57
3438.697	49
3441.628	32
3444.557	47
3447.483	42
3450.407	32
3453.328	41
3456.247	35
3459.164	33
3462.079	29
3464.991	32
3467.902	24
3470.809	31
3473.715	22
3476.618	21
3479.519	17
3482.418	15
3485.315	17
3488.209	7
3491.101	8
3493.99	9
3496.878	3
3499.763	2
3502.646	5
3505.527	0
3508.405	4
3511.281	6
3514.155	-4
3517.027	-9
3519.897	-6
3522.764	-4
3525.629	-2
3528.492	-10
3531.352	-14
3534.211	-15
3537.067	-19
3539.921	-17
3542.773	-22
3545.622	-14
3548.469	-20
3551.315	-19
3554.157	-21
3556.998	-15
3559.837	-21
3562.673	-21
3565.507	-19
3568.339	-20
3571.169	-25
3573.996	-19
3576.822	-33
3579.645	-27
3582.466	-27
3585.285	-27
3588.101	-29
3590.916	-24
3593.728	-33
3596.538	-34
3599.346	-31
3602.152	-29
3604.956	-28
3607.757	-25
3610.556	-33
3613.354	-39
3616.149	-36
3618.942	-38
3621.732	-38
3624.521	-40
3627.307	-36
3630.092	-38
3632.874	-40
3635.654	-36
3638.432	-38
3641.208	-36
3643.982	-33
3646.753	-42
3649.523	-38
3652.29	-46
3655.055	-39
3657.818	-43
3660.579	-43
3663.338	-35
3666.095	-44
3668.849	-39
3671.602	-40
3674.352	-37
3677.101	-40
3679.847	-43
3682.591	-48
3685.333	-42
3688.073	-51
3690.811	-44
3693.547	-47
3696.281	-44
3699.013	-39
3701.742	-48
3704.47	-45
3707.195	-41
3709.919	-45
3712.64	-47
3715.359	-45
3718.076	-49
3720.792	-48
3723.505	-46
3726.216	-49
3728.925	-52
3731.632	-49
3734.336	-47
3737.039	-42
3739.74	-49
3742.439	-50
3745.136	-45
3747.83	-46
3750.523	-50
3753.213	-53
3755.902	-49
3758.589	-51
3761.273	-46
3763.956	-57
3766.636	-47
3769.315	-48
3771.991	-51
3774.665	-51
3777.338	-45
3780.008	-50
3782.677	-51
3785.343	-48
3788.007	-50
3790.67	-49
3793.33	-49
3795.989	-48
3798.645	-50
3801.299	-49
3803.952	-52
3806.602	-51
3809.251	-51
3811.897	-55
3814.542	-54
3817.184	-53
3819.825	-44
3822.463	-50
3825.1	-44
3827.735	-54
3830.367	-49
3832.998	-54
3835.627	-50
3838.253	-46
3840.878	-45
3843.501	-45
3846.122	-51
3848.741	-54
3851.358	-51
3853.973	-45
3856.586	-51
3859.197	-47
3861.806	-50
3864.414	-49
3867.019	-50
3869.622	-48
3872.224	-42
3874.823	-36
3877.421	-27
3880.016	-19
3882.61	0
3885.202	-1
3887.792	-1
3890.38	-18
3892.966	-35
3895.55	-41
3898.132	-46
3900.713	-51
3903.291	-55
3905.868	-46
3908.442	-52
3911.015	-54
3913.586	-57
3916.155	-50
3918.722	-51
3921.287	-47
3923.85	-45
3926.411	-48
3928.971	-57
3931.528	-51
3934.084	-47
3936.638	-49
3939.19	-53
3941.74	-52
3944.288	-55
3946.834	-51
3949.378	-48
3951.921	-56
3954.462	-53
3957	-47
3959.537	-40
3962.072	-46
3964.606	-43
3967.137	-47
3969.667	-50
3972.194	-47
3974.72	-49
3977.244	-44
3979.766	-50
3982.286	-52
3984.805	-65
3987.321	-51
3989.836	-45
3992.349	-47
3994.86	-50
3997.369	-50
3999.877	-51
4002.382	-52
4004.886	-46
4007.388	-56
4009.888	-50
4012.386	-51
4014.883	-50
4017.377	-47
4019.87	-47
4022.361	-55
4024.85	-50
4027.338	-51
4029.823	-46
4032.307	-50
4034.789	-45
4037.269	-53
4039.747	-53
4042.224	-52
4044.699	-57
4047.172	-56
4049.643	-50
4052.112	-51
4054.58	-50
4057.046	-49
4059.51	-51
4061.972	-51
4064.432	-49
4066.891	-45
4069.348	-47
4071.803	-45
4074.256	-46
4076.708	-53
4079.158	-53
4081.606	-50
4084.052	-48
4086.497	-47
4088.939	-45
4091.38	-53
4093.819	-48
4096.257	-54
4098.693	-50
4101.127	-46
4103.559	-56
4105.989	21
4108.418	15
4110.845	14
4113.27	7
4115.694	12
4118.115	10
4120.535	-51
4122.954	-48
4125.37	-53
4127.785	-44
4130.198	-48
4132.609	-54
4135.019	-56
4137.427	-57
4139.833	-52
4142.237	-50
