Data from 2018-2-8_conc=2_n=3_RamanShift_01.txt Node
Date: Mon Mar 12 14:01:58 IST 2018
User: aro
Spectrometer: QEPB0276
Trigger mode: 0
Integration Time (sec): 3.000000E1
Scans to average: 1
Electric dark correction enabled: true
Nonlinearity correction enabled: false
Boxcar width: 0
XAxis mode: Raman Shifts
Number of Pixels in Spectrum: 1044
>>>>>Begin Spectral Data<<<<<
160.701	18
166.742	48
172.777	141
178.805	409
184.826	1097
190.841	2352
196.849	3920
202.85	5108
208.845	5625
214.833	5592
220.815	5527
226.789	5502
232.758	5536
238.719	5493
244.674	5422
250.623	5425
256.565	5322
262.5	5204
268.429	5170
274.351	5119
280.267	5076
286.176	5062
292.079	5039
297.975	4992
303.865	5021
309.748	4991
315.625	4956
321.495	4986
327.359	4987
333.217	4937
339.068	4941
344.912	4973
350.751	4981
356.583	4967
362.408	5007
368.227	5000
374.04	5010
379.847	5047
385.647	5035
391.44	5054
397.228	5095
403.009	5126
408.784	5145
414.553	5143
420.315	5163
426.071	5190
431.821	5167
437.565	5144
443.302	5175
449.033	5141
454.758	5116
460.477	5114
466.189	5064
471.896	5032
477.596	5031
483.29	5003
488.978	5002
494.66	4967
500.335	4892
506.005	4784
511.668	4639
517.325	4493
522.977	4365
528.622	4296
534.261	4217
539.894	4193
545.521	4165
551.141	4128
556.756	4094
562.365	4046
567.968	4043
573.565	4034
579.155	4013
584.74	4007
590.319	4005
595.892	3960
601.459	3961
607.02	3955
612.575	3901
618.124	3887
623.667	3836
629.204	3804
634.735	3796
640.261	3757
645.781	3737
651.294	3733
656.802	3709
662.304	3698
667.8	3661
673.29	3692
678.775	3688
684.254	3667
689.726	3634
695.193	3642
700.655	3617
706.11	3590
711.56	3589
717.004	3558
722.442	3532
727.874	3538
733.301	3501
738.722	3495
744.137	3482
749.547	3466
754.951	3470
760.349	3468
765.741	3465
771.128	3513
776.509	3521
781.885	3556
787.254	3541
792.618	3520
797.977	3532
803.33	3496
808.677	3450
814.019	3461
819.355	3432
824.686	3422
830.011	3378
835.33	3364
840.644	3361
845.952	3349
851.255	3360
856.552	3347
861.844	3328
867.13	3317
872.41	3283
877.686	3254
882.955	3220
888.219	3210
893.478	3188
898.731	3130
903.979	3095
909.221	3059
914.458	3049
919.69	3036
924.916	3037
930.136	3052
935.351	3058
940.561	3044
945.766	3046
950.965	3047
956.158	3003
961.347	2961
966.529	2952
971.707	2917
976.879	2880
982.046	2842
987.208	2822
992.364	2832
997.515	2848
1002.66	2852
1007.801	2909
1012.936	2916
1018.066	2935
1023.19	2896
1028.309	2940
1033.423	2934
1038.532	2903
1043.636	2874
1048.734	2867
1053.827	2836
1058.915	2774
1063.998	2759
1069.075	2766
1074.147	2750
1079.214	2740
1084.276	2769
1089.333	2765
1094.385	2793
1099.431	2808
1104.472	2783
1109.509	2779
1114.54	2750
1119.565	2684
1124.586	2645
1129.602	2598
1134.613	2603
1139.618	2582
1144.619	2583
1149.614	2567
1154.604	2595
1159.589	2595
1164.57	2610
1169.545	2605
1174.515	2615
1179.48	2587
1184.44	2585
1189.395	2553
1194.345	2550
1199.29	2517
1204.23	2517
1209.165	2531
1214.095	2532
1219.021	2529
1223.941	2558
1228.856	2560
1233.766	2547
1238.672	2566
1243.572	2565
1248.467	2568
1253.358	2512
1258.244	2497
1263.124	2452
1268	2393
1272.871	2389
1277.737	2359
1282.599	2340
1287.455	2347
1292.306	2352
1297.153	2367
1301.995	2381
1306.832	2394
1311.664	2415
1316.491	2412
1321.314	2386
1326.132	2378
1330.945	2366
1335.753	2312
1340.556	2296
1345.354	2228
1350.148	2223
1354.937	2160
1359.722	2133
1364.501	2130
1369.276	2081
1374.046	2047
1378.811	2011
1383.572	2003
1388.327	2017
1393.079	2004
1397.825	2002
1402.567	2006
1407.304	1994
1412.036	2013
1416.764	2017
1421.487	2024
1426.205	2034
1430.919	2021
1435.628	2026
1440.333	2035
1445.032	2070
1449.727	2098
1454.418	2097
1459.104	2083
1463.785	2045
1468.462	2020
1473.134	1967
1477.802	1942
1482.465	1889
1487.123	1839
1491.777	1826
1496.426	1803
1501.071	1783
1505.711	1781
1510.347	1795
1514.978	1782
1519.604	1792
1524.226	1782
1528.844	1766
1533.457	1737
1538.065	1770
1542.669	1747
1547.269	1738
1551.864	1750
1556.454	1789
1561.041	1798
1565.622	1786
1570.199	1802
1574.772	1806
1579.34	1846
1583.904	1850
1588.464	1869
1593.019	1878
1597.569	1886
1602.115	1886
1606.657	1883
1611.195	1856
1615.728	1873
1620.256	1874
1624.78	1850
1629.3	1864
1633.816	1863
1638.327	1889
1642.834	1883
1647.336	1896
1651.834	1873
1656.328	1898
1660.817	1895
1665.302	1876
1669.783	1840
1674.259	1820
1678.732	1734
1683.199	1694
1687.663	1639
1692.122	1585
1696.577	1528
1701.028	1462
1705.474	1407
1709.917	1363
1714.355	1332
1718.788	1315
1723.218	1336
1727.643	1317
1732.064	1320
1736.481	1321
1740.893	1269
1745.301	1259
1749.705	1231
1754.105	1203
1758.501	1185
1762.893	1162
1767.28	1155
1771.663	1151
1776.042	1138
1780.417	1124
1784.787	1103
1789.154	1091
1793.516	1088
1797.874	1071
1802.228	1059
1806.578	1049
1810.924	1031
1815.266	1021
1819.603	1021
1823.937	1022
1828.266	1025
1832.591	1038
1836.913	1028
1841.23	1028
1845.543	1006
1849.852	1014
1854.156	1010
1858.457	1034
1862.754	1018
1867.047	1003
1871.335	1016
1875.62	1019
1879.9	1015
1884.177	1002
1888.449	989
1892.718	984
1896.982	969
1901.243	951
1905.499	945
1909.752	939
1914	914
1918.245	911
1922.485	900
1926.722	883
1930.954	884
1935.183	888
1939.408	866
1943.628	872
1947.845	860
1952.058	865
1956.267	844
1960.472	829
1964.673	830
1968.87	817
1973.063	832
1977.252	813
1981.438	825
1985.619	830
1989.797	827
1993.971	811
1998.14	832
2002.306	827
2006.469	827
2010.627	828
2014.781	833
2018.932	815
2023.078	833
2027.221	823
2031.36	808
2035.495	817
2039.627	797
2043.754	773
2047.878	764
2051.998	765
2056.114	754
2060.226	756
2064.334	760
2068.439	756
2072.54	743
2076.637	742
2080.73	746
2084.82	724
2088.906	729
2092.988	723
2097.066	710
2101.14	699
2105.211	704
2109.278	696
2113.342	676
2117.401	673
2121.457	669
2125.509	666
2129.558	652
2133.602	685
2137.643	682
2141.681	661
2145.714	658
2149.744	661
2153.77	664
2157.793	657
2161.812	654
2165.827	635
2169.838	638
2173.846	613
2177.851	615
2181.851	604
2185.848	603
2189.841	600
2193.831	601
2197.817	588
2201.799	581
2205.778	595
2209.753	582
2213.725	579
2217.693	585
2221.657	591
2225.618	584
2229.575	584
2233.529	567
2237.479	572
2241.425	551
2245.368	548
2249.307	547
2253.243	535
2257.175	525
2261.104	520
2265.029	503
2268.95	500
2272.868	495
2276.783	497
2280.694	493
2284.601	483
2288.505	480
2292.405	477
2296.302	460
2300.195	463
2304.085	457
2307.971	440
2311.854	451
2315.734	424
2319.609	422
2323.482	423
2327.351	419
2331.216	433
2335.078	444
2338.937	423
2342.792	409
2346.643	409
2350.492	410
2354.336	391
2358.178	402
2362.015	408
2365.85	410
2369.681	407
2373.508	408
2377.333	412
2381.153	395
2384.971	404
2388.785	400
2392.595	381
2396.402	388
2400.206	394
2404.007	387
2407.804	390
2411.597	380
2415.388	374
2419.174	382
2422.958	362
2426.738	372
2430.515	365
2434.289	375
2438.059	361
2441.825	361
2445.589	364
2449.349	345
2453.106	350
2456.859	345
2460.61	335
2464.356	339
2468.1	327
2471.84	321
2475.577	326
2479.311	311
2483.041	318
2486.768	314
2490.492	305
2494.213	321
2497.93	315
2501.644	304
2505.355	292
2509.062	303
2512.766	298
2516.467	294
2520.165	291
2523.859	291
2527.551	282
2531.239	280
2534.923	266
2538.605	262
2542.283	269
2545.958	260
2549.63	261
2553.299	251
2556.964	263
2560.626	249
2564.285	237
2567.941	247
2571.594	247
2575.243	239
2578.89	236
2582.533	234
2586.173	230
2589.809	226
2593.443	227
2597.073	225
2600.701	215
2604.325	211
2607.946	216
2611.564	207
2615.178	221
2618.79	210
2622.398	222
2626.004	207
2629.606	205
2633.205	197
2636.801	197
2640.394	208
2643.983	194
2647.57	198
2651.153	199
2654.734	194
2658.311	172
2661.885	180
2665.456	187
2669.025	181
2672.589	184
2676.151	185
2679.71	181
2683.266	166
2686.819	168
2690.368	170
2693.915	160
2697.458	162
2700.999	163
2704.536	155
2708.071	152
2711.602	148
2715.13	149
2718.656	142
2722.178	140
2725.697	139
2729.214	129
2732.727	134
2736.237	134
2739.744	132
2743.249	130
2746.75	123
2750.248	132
2753.743	128
2757.236	119
2760.725	129
2764.211	114
2767.695	106
2771.175	102
2774.652	110
2778.127	109
2781.598	103
2785.067	119
2788.532	107
2791.995	109
2795.455	113
2798.911	105
2802.365	112
2805.816	113
2809.264	117
2812.709	111
2816.151	108
2819.59	111
2823.026	108
2826.46	106
2829.89	108
2833.318	108
2836.742	114
2840.164	115
2843.583	117
2846.999	119
2850.412	116
2853.822	114
2857.229	120
2860.634	119
2864.035	131
2867.434	127
2870.83	135
2874.223	150
2877.613	150
2881	157
2884.385	165
2887.766	146
2891.145	152
2894.521	161
2897.894	161
2901.264	162
2904.631	168
2907.996	164
2911.358	168
2914.717	170
2918.073	177
2921.426	179
2924.777	192
2928.124	191
2931.469	184
2934.811	201
2938.15	205
2941.487	213
2944.821	207
2948.152	212
2951.48	205
2954.805	219
2958.128	211
2961.447	198
2964.765	207
2968.079	202
2971.39	204
2974.699	203
2978.005	203
2981.308	213
2984.609	202
2987.907	210
2991.202	214
2994.494	209
2997.784	221
3001.07	226
3004.355	227
3007.636	234
3010.915	230
3014.191	226
3017.464	243
3020.734	248
3024.002	243
3027.267	252
3030.53	253
3033.789	265
3037.046	271
3040.301	274
3043.552	284
3046.801	288
3050.048	293
3053.291	317
3056.532	319
3059.771	335
3063.006	333
3066.239	367
3069.469	369
3072.697	377
3075.922	392
3079.144	394
3082.364	415
3085.581	423
3088.795	418
3092.007	434
3095.216	440
3098.423	449
3101.627	456
3104.828	469
3108.026	477
3111.222	497
3114.416	506
3117.607	518
3120.795	519
3123.98	532
3127.163	536
3130.344	570
3133.521	574
3136.696	595
3139.869	606
3143.039	616
3146.206	614
3149.371	640
3152.533	633
3155.693	640
3158.85	648
3162.005	655
3165.157	660
3168.306	665
3171.453	664
3174.597	672
3177.739	671
3180.878	676
3184.014	691
3187.149	679
3190.28	683
3193.409	694
3196.536	690
3199.659	702
3202.781	711
3205.9	694
3209.016	701
3212.13	697
3215.241	691
3218.35	683
3221.456	681
3224.56	673
3227.661	661
3230.76	662
3233.856	645
3236.95	634
3240.041	630
3243.13	607
3246.216	599
3249.3	602
3252.382	591
3255.46	587
3258.537	582
3261.611	579
3264.682	555
3267.751	570
3270.818	578
3273.882	567
3276.943	562
3280.002	555
3283.059	541
3286.113	544
3289.165	539
3292.214	540
3295.261	520
3298.306	534
3301.348	515
3304.387	516
3307.425	508
3310.459	500
3313.492	486
3316.521	488
3319.549	486
3322.574	486
3325.597	475
3328.617	482
3331.635	477
3334.65	472
3337.663	464
3340.674	472
3343.682	470
3346.688	462
3349.691	463
3352.692	464
3355.691	468
3358.687	455
3361.681	462
3364.673	455
3367.662	438
3370.649	440
3373.633	424
3376.615	417
3379.595	416
3382.572	417
3385.547	397
3388.52	398
3391.49	382
3394.458	381
3397.424	378
3400.387	374
3403.348	359
3406.307	359
3409.263	360
3412.217	352
3415.168	346
3418.118	345
3421.065	341
3424.009	343
3426.951	327
3429.891	306
3432.829	303
3435.764	294
3438.697	287
3441.628	290
3444.557	283
3447.483	262
3450.407	244
3453.328	230
3456.247	233
3459.164	214
3462.079	214
3464.991	200
3467.902	194
3470.809	193
3473.715	179
3476.618	175
3479.519	163
3482.418	158
3485.315	148
3488.209	132
3491.101	138
3493.99	136
3496.878	126
3499.763	113
3502.646	101
3505.527	104
3508.405	96
3511.281	78
3514.155	74
3517.027	68
3519.897	66
3522.764	63
3525.629	46
3528.492	37
3531.352	28
3534.211	28
3537.067	22
3539.921	15
3542.773	17
3545.622	2
3548.469	-2
3551.315	1
3554.157	-10
3556.998	-22
3559.837	-19
3562.673	-20
3565.507	-20
3568.339	-31
3571.169	-38
3573.996	-39
3576.822	-42
3579.645	-45
3582.466	-45
3585.285	-51
3588.101	-51
3590.916	-58
3593.728	-68
3596.538	-60
3599.346	-75
3602.152	-70
3604.956	-75
3607.757	-71
3610.556	-75
3613.354	-74
3616.149	-86
3618.942	-90
3621.732	-89
3624.521	-89
3627.307	-93
3630.092	-88
3632.874	-97
3635.654	-101
3638.432	-96
3641.208	-96
3643.982	-103
3646.753	-104
3649.523	-107
3652.29	-101
3655.055	-102
3657.818	-105
3660.579	-107
3663.338	-105
3666.095	-114
3668.849	-115
3671.602	-109
3674.352	-120
3677.101	-119
3679.847	-122
3682.591	-121
3685.333	-114
3688.073	-116
3690.811	-126
3693.547	-133
3696.281	-127
3699.013	-128
3701.742	-127
3704.47	-128
3707.195	-125
3709.919	-133
3712.64	-128
3715.359	-139
3718.076	-133
3720.792	-138
3723.505	-133
3726.216	-134
3728.925	-139
3731.632	-138
3734.336	-144
3737.039	-137
3739.74	-135
3742.439	-147
3745.136	-136
3747.83	-138
3750.523	-138
3753.213	-133
3755.902	-139
3758.589	-147
3761.273	-136
3763.956	-134
3766.636	-143
3769.315	-138
3771.991	-134
3774.665	-144
3777.338	-135
3780.008	-145
3782.677	-147
3785.343	-141
3788.007	-144
3790.67	-145
3793.33	-141
3795.989	-141
3798.645	-140
3801.299	-146
3803.952	-154
3806.602	-139
3809.251	-149
3811.897	-151
3814.542	-146
3817.184	-138
3819.825	-146
3822.463	-147
3825.1	-144
3827.735	-150
3830.367	-148
3832.998	-146
3835.627	-145
3838.253	-141
3840.878	-138
3843.501	-140
3846.122	-146
3848.741	-146
3851.358	-143
3853.973	-148
3856.586	-141
3859.197	-154
3861.806	-141
3864.414	-146
3867.019	-148
3869.622	-145
3872.224	-131
3874.823	-124
3877.421	-111
3880.016	-82
3882.61	-52
3885.202	-50
3887.792	-69
3890.38	-95
3892.966	-131
3895.55	-135
3898.132	-139
3900.713	-150
3903.291	-152
3905.868	-153
3908.442	-143
3911.015	-148
3913.586	-150
3916.155	-150
3918.722	-148
3921.287	-153
3923.85	-148
3926.411	-153
3928.971	-152
3931.528	-154
3934.084	-149
3936.638	-145
3939.19	-152
3941.74	-150
3944.288	-154
3946.834	-148
3949.378	-151
3951.921	-148
3954.462	-155
3957	-150
3959.537	-143
3962.072	-151
3964.606	-146
3967.137	-151
3969.667	-147
3972.194	-153
3974.72	-148
3977.244	-150
3979.766	-150
3982.286	-146
3984.805	-152
3987.321	-149
3989.836	-140
3992.349	-148
3994.86	-144
3997.369	-148
3999.877	-141
4002.382	-141
4004.886	-151
4007.388	-149
4009.888	-145
4012.386	-146
4014.883	-147
4017.377	-149
4019.87	-145
4022.361	-148
4024.85	-148
4027.338	-149
4029.823	-149
4032.307	-147
4034.789	-147
4037.269	-144
4039.747	-142
4042.224	-142
4044.699	-152
4047.172	-146
4049.643	-143
4052.112	-145
4054.58	-144
4057.046	-148
4059.51	-148
4061.972	-141
4064.432	-153
4066.891	-148
4069.348	-144
4071.803	-151
4074.256	-145
4076.708	-143
4079.158	-146
4081.606	-144
4084.052	-154
4086.497	-142
4088.939	-136
4091.38	-141
4093.819	-148
4096.257	-157
4098.693	-149
4101.127	-152
4103.559	-149
4105.989	14
4108.418	11
4110.845	7
4113.27	5
4115.694	-1
4118.115	2
4120.535	-150
4122.954	-149
4125.37	-148
4127.785	-147
4130.198	-149
4132.609	-140
4135.019	-153
4137.427	-152
4139.833	-156
4142.237	-155
