Data from 2018-2-8_conc=2_n=8_RamanShift_01.txt Node
Date: Mon Mar 12 14:18:58 IST 2018
User: aro
Spectrometer: QEPB0276
Trigger mode: 0
Integration Time (sec): 3.000000E1
Scans to average: 1
Electric dark correction enabled: true
Nonlinearity correction enabled: false
Boxcar width: 0
XAxis mode: Raman Shifts
Number of Pixels in Spectrum: 1044
>>>>>Begin Spectral Data<<<<<
160.701	22
166.742	49
172.777	127
178.805	372
184.826	994
190.841	2140
196.849	3549
202.85	4640
208.845	5072
214.833	5097
220.815	5032
226.789	4983
232.758	4986
238.719	4987
244.674	4958
250.623	4916
256.565	4838
262.5	4764
268.429	4714
274.351	4658
280.267	4610
286.176	4578
292.079	4610
297.975	4589
303.865	4538
309.748	4525
315.625	4535
321.495	4499
327.359	4536
333.217	4525
339.068	4519
344.912	4516
350.751	4543
356.583	4561
362.408	4555
368.227	4562
374.04	4584
379.847	4617
385.647	4641
391.44	4644
397.228	4678
403.009	4698
408.784	4720
414.553	4769
420.315	4689
426.071	4757
431.821	4739
437.565	4717
443.302	4720
449.033	4730
454.758	4692
460.477	4664
466.189	4654
471.896	4620
477.596	4584
483.29	4559
488.978	4567
494.66	4538
500.335	4455
506.005	4386
511.668	4202
517.325	4041
522.977	3955
528.622	3861
534.261	3817
539.894	3779
545.521	3727
551.141	3710
556.756	3654
562.365	3668
567.968	3608
573.565	3583
579.155	3581
584.74	3553
590.319	3517
595.892	3536
601.459	3520
607.02	3519
612.575	3494
618.124	3487
623.667	3408
629.204	3383
634.735	3362
640.261	3316
645.781	3332
651.294	3303
656.802	3313
662.304	3318
667.8	3263
673.29	3269
678.775	3287
684.254	3248
689.726	3244
695.193	3228
700.655	3196
706.11	3206
711.56	3176
717.004	3150
722.442	3143
727.874	3113
733.301	3129
738.722	3090
744.137	3088
749.547	3088
754.951	3098
760.349	3101
765.741	3097
771.128	3103
776.509	3139
781.885	3171
787.254	3168
792.618	3152
797.977	3159
803.33	3140
808.677	3115
814.019	3085
819.355	3077
824.686	3038
830.011	3031
835.33	3017
840.644	3009
845.952	2983
851.255	2971
856.552	2978
861.844	2960
867.13	2951
872.41	2915
877.686	2893
882.955	2872
888.219	2843
893.478	2830
898.731	2776
903.979	2734
909.221	2734
914.458	2711
919.69	2730
924.916	2704
930.136	2708
935.351	2733
940.561	2741
945.766	2715
950.965	2699
956.158	2680
961.347	2649
966.529	2606
971.707	2593
976.879	2536
982.046	2526
987.208	2528
992.364	2510
997.515	2528
1002.66	2546
1007.801	2557
1012.936	2592
1018.066	2598
1023.19	2602
1028.309	2590
1033.423	2599
1038.532	2587
1043.636	2569
1048.734	2547
1053.827	2509
1058.915	2469
1063.998	2485
1069.075	2460
1074.147	2483
1079.214	2448
1084.276	2461
1089.333	2472
1094.385	2492
1099.431	2501
1104.472	2508
1109.509	2461
1114.54	2442
1119.565	2405
1124.586	2351
1129.602	2345
1134.613	2330
1139.618	2313
1144.619	2293
1149.614	2302
1154.604	2314
1159.589	2309
1164.57	2333
1169.545	2331
1174.515	2322
1179.48	2330
1184.44	2288
1189.395	2276
1194.345	2266
1199.29	2246
1204.23	2234
1209.165	2224
1214.095	2263
1219.021	2270
1223.941	2294
1228.856	2282
1233.766	2276
1238.672	2306
1243.572	2292
1248.467	2275
1253.358	2254
1258.244	2222
1263.124	2184
1268	2136
1272.871	2125
1277.737	2087
1282.599	2093
1287.455	2083
1292.306	2094
1297.153	2105
1301.995	2120
1306.832	2138
1311.664	2156
1316.491	2164
1321.314	2143
1326.132	2123
1330.945	2113
1335.753	2081
1340.556	2035
1345.354	2024
1350.148	1979
1354.937	1950
1359.722	1924
1364.501	1898
1369.276	1857
1374.046	1832
1378.811	1801
1383.572	1806
1388.327	1810
1393.079	1811
1397.825	1806
1402.567	1790
1407.304	1783
1412.036	1794
1416.764	1808
1421.487	1802
1426.205	1799
1430.919	1809
1435.628	1810
1440.333	1832
1445.032	1845
1449.727	1881
1454.418	1895
1459.104	1872
1463.785	1841
1468.462	1795
1473.134	1785
1477.802	1754
1482.465	1696
1487.123	1660
1491.777	1645
1496.426	1632
1501.071	1604
1505.711	1613
1510.347	1624
1514.978	1619
1519.604	1619
1524.226	1619
1528.844	1595
1533.457	1586
1538.065	1598
1542.669	1566
1547.269	1569
1551.864	1575
1556.454	1585
1561.041	1595
1565.622	1607
1570.199	1632
1574.772	1624
1579.34	1636
1583.904	1689
1588.464	1684
1593.019	1686
1597.569	1685
1602.115	1695
1606.657	1685
1611.195	1698
1615.728	1668
1620.256	1680
1624.78	1684
1629.3	1682
1633.816	1688
1638.327	1691
1642.834	1710
1647.336	1706
1651.834	1734
1656.328	1716
1660.817	1706
1665.302	1686
1669.783	1644
1674.259	1609
1678.732	1574
1683.199	1545
1687.663	1482
1692.122	1464
1696.577	1398
1701.028	1327
1705.474	1278
1709.917	1242
1714.355	1218
1718.788	1208
1723.218	1194
1727.643	1201
1732.064	1197
1736.481	1180
1740.893	1154
1745.301	1138
1749.705	1121
1754.105	1095
1758.501	1061
1762.893	1063
1767.28	1051
1771.663	1041
1776.042	1039
1780.417	1011
1784.787	995
1789.154	1003
1793.516	998
1797.874	977
1802.228	974
1806.578	965
1810.924	946
1815.266	930
1819.603	944
1823.937	928
1828.266	930
1832.591	920
1836.913	928
1841.23	920
1845.543	932
1849.852	933
1854.156	924
1858.457	929
1862.754	919
1867.047	934
1871.335	929
1875.62	934
1879.9	939
1884.177	919
1888.449	912
1892.718	892
1896.982	887
1901.243	877
1905.499	865
1909.752	858
1914	840
1918.245	840
1922.485	821
1926.722	819
1930.954	816
1935.183	801
1939.408	820
1943.628	802
1947.845	808
1952.058	787
1956.267	798
1960.472	774
1964.673	771
1968.87	750
1973.063	761
1977.252	749
1981.438	757
1985.619	757
1989.797	748
1993.971	755
1998.14	762
2002.306	757
2006.469	769
2010.627	759
2014.781	770
2018.932	748
2023.078	750
2027.221	742
2031.36	748
2035.495	738
2039.627	732
2043.754	720
2047.878	718
2051.998	703
2056.114	706
2060.226	691
2064.334	697
2068.439	703
2072.54	684
2076.637	691
2080.73	681
2084.82	684
2088.906	668
2092.988	672
2097.066	669
2101.14	670
2105.211	648
2109.278	645
2113.342	629
2117.401	623
2121.457	619
2125.509	622
2129.558	615
2133.602	625
2137.643	623
2141.681	616
2145.714	608
2149.744	607
2153.77	619
2157.793	595
2161.812	602
2165.827	595
2169.838	591
2173.846	580
2177.851	556
2181.851	555
2185.848	553
2189.841	549
2193.831	563
2197.817	537
2201.799	539
2205.778	548
2209.753	526
2213.725	523
2217.693	527
2221.657	531
2225.618	538
2229.575	528
2233.529	528
2237.479	515
2241.425	520
2245.368	511
2249.307	493
2253.243	478
2257.175	478
2261.104	484
2265.029	478
2268.95	481
2272.868	465
2276.783	459
2280.694	453
2284.601	437
2288.505	439
2292.405	431
2296.302	431
2300.195	422
2304.085	415
2307.971	405
2311.854	408
2315.734	391
2319.609	378
2323.482	400
2327.351	400
2331.216	398
2335.078	405
2338.937	393
2342.792	382
2346.643	372
2350.492	374
2354.336	372
2358.178	374
2362.015	376
2365.85	376
2369.681	366
2373.508	373
2377.333	374
2381.153	365
2384.971	382
2388.785	363
2392.595	367
2396.402	366
2400.206	353
2404.007	366
2407.804	348
2411.597	343
2415.388	348
2419.174	346
2422.958	346
2426.738	342
2430.515	338
2434.289	345
2438.059	341
2441.825	337
2445.589	330
2449.349	327
2453.106	316
2456.859	317
2460.61	319
2464.356	312
2468.1	300
2471.84	306
2475.577	302
2479.311	288
2483.041	289
2486.768	291
2490.492	291
2494.213	290
2497.93	287
2501.644	285
2505.355	274
2509.062	272
2512.766	282
2516.467	272
2520.165	270
2523.859	269
2527.551	264
2531.239	259
2534.923	244
2538.605	252
2542.283	245
2545.958	244
2549.63	249
2553.299	235
2556.964	243
2560.626	238
2564.285	234
2567.941	222
2571.594	226
2575.243	220
2578.89	231
2582.533	219
2586.173	211
2589.809	211
2593.443	220
2597.073	211
2600.701	199
2604.325	199
2607.946	194
2611.564	202
2615.178	206
2618.79	202
2622.398	200
2626.004	192
2629.606	197
2633.205	184
2636.801	187
2640.394	191
2643.983	188
2647.57	190
2651.153	182
2654.734	178
2658.311	170
2661.885	166
2665.456	172
2669.025	179
2672.589	173
2676.151	176
2679.71	161
2683.266	160
2686.819	162
2690.368	158
2693.915	147
2697.458	148
2700.999	153
2704.536	157
2708.071	142
2711.602	141
2715.13	148
2718.656	137
2722.178	136
2725.697	134
2729.214	132
2732.727	134
2736.237	131
2739.744	125
2743.249	127
2746.75	123
2750.248	121
2753.743	121
2757.236	117
2760.725	118
2764.211	118
2767.695	101
2771.175	98
2774.652	96
2778.127	104
2781.598	102
2785.067	108
2788.532	101
2791.995	102
2795.455	113
2798.911	100
2802.365	109
2805.816	104
2809.264	104
2812.709	118
2816.151	108
2819.59	114
2823.026	105
2826.46	104
2829.89	98
2833.318	105
2836.742	110
2840.164	106
2843.583	107
2846.999	106
2850.412	110
2853.822	112
2857.229	111
2860.634	116
2864.035	124
2867.434	122
2870.83	131
2874.223	134
2877.613	133
2881	153
2884.385	153
2887.766	143
2891.145	147
2894.521	151
2897.894	156
2901.264	148
2904.631	150
2907.996	154
2911.358	154
2914.717	153
2918.073	166
2921.426	171
2924.777	175
2928.124	172
2931.469	176
2934.811	192
2938.15	189
2941.487	198
2944.821	192
2948.152	194
2951.48	187
2954.805	197
2958.128	197
2961.447	189
2964.765	187
2968.079	184
2971.39	183
2974.699	193
2978.005	193
2981.308	199
2984.609	195
2987.907	196
2991.202	196
2994.494	210
2997.784	197
3001.07	210
3004.355	220
3007.636	228
3010.915	206
3014.191	209
3017.464	226
3020.734	223
3024.002	227
3027.267	224
3030.53	231
3033.789	238
3037.046	251
3040.301	248
3043.552	261
3046.801	274
3050.048	279
3053.291	286
3056.532	296
3059.771	305
3063.006	303
3066.239	328
3069.469	338
3072.697	343
3075.922	355
3079.144	364
3082.364	374
3085.581	389
3088.795	382
3092.007	389
3095.216	407
3098.423	409
3101.627	425
3104.828	438
3108.026	440
3111.222	456
3114.416	460
3117.607	465
3120.795	486
3123.98	488
3127.163	504
3130.344	522
3133.521	534
3136.696	545
3139.869	551
3143.039	548
3146.206	579
3149.371	575
3152.533	584
3155.693	588
3158.85	593
3162.005	599
3165.157	606
3168.306	605
3171.453	597
3174.597	596
3177.739	610
3180.878	614
3184.014	632
3187.149	620
3190.28	617
3193.409	627
3196.536	626
3199.659	634
3202.781	633
3205.9	633
3209.016	645
3212.13	651
3215.241	635
3218.35	611
3221.456	609
3224.56	617
3227.661	602
3230.76	604
3233.856	598
3236.95	590
3240.041	564
3243.13	563
3246.216	543
3249.3	536
3252.382	538
3255.46	537
3258.537	533
3261.611	533
3264.682	511
3267.751	521
3270.818	512
3273.882	513
3276.943	514
3280.002	491
3283.059	497
3286.113	503
3289.165	496
3292.214	495
3295.261	488
3298.306	468
3301.348	470
3304.387	472
3307.425	467
3310.459	460
3313.492	452
3316.521	446
3319.549	452
3322.574	444
3325.597	431
3328.617	445
3331.635	436
3334.65	436
3337.663	418
3340.674	436
3343.682	428
3346.688	423
3349.691	431
3352.692	420
3355.691	418
3358.687	414
3361.681	408
3364.673	412
3367.662	402
3370.649	394
3373.633	387
3376.615	375
3379.595	376
3382.572	372
3385.547	371
3388.52	352
3391.49	345
3394.458	342
3397.424	346
3400.387	344
3403.348	329
3406.307	323
3409.263	328
3412.217	307
3415.168	312
3418.118	319
3421.065	300
3424.009	304
3426.951	300
3429.891	289
3432.829	278
3435.764	274
3438.697	264
3441.628	248
3444.557	261
3447.483	250
3450.407	226
3453.328	216
3456.247	206
3459.164	202
3462.079	188
3464.991	185
3467.902	176
3470.809	176
3473.715	164
3476.618	156
3479.519	148
3482.418	140
3485.315	131
3488.209	127
3491.101	119
3493.99	124
3496.878	115
3499.763	108
3502.646	91
3505.527	82
3508.405	88
3511.281	92
3514.155	75
3517.027	68
3519.897	62
3522.764	52
3525.629	45
3528.492	37
3531.352	34
3534.211	27
3537.067	21
3539.921	17
3542.773	12
3545.622	7
3548.469	-5
3551.315	-3
3554.157	-12
3556.998	-14
3559.837	-17
3562.673	-23
3565.507	-23
3568.339	-27
3571.169	-42
3573.996	-28
3576.822	-37
3579.645	-35
3582.466	-36
3585.285	-44
3588.101	-41
3590.916	-59
3593.728	-59
3596.538	-61
3599.346	-64
3602.152	-62
3604.956	-64
3607.757	-64
3610.556	-74
3613.354	-68
3616.149	-76
3618.942	-84
3621.732	-78
3624.521	-82
3627.307	-77
3630.092	-82
3632.874	-77
3635.654	-86
3638.432	-86
3641.208	-87
3643.982	-97
3646.753	-93
3649.523	-98
3652.29	-98
3655.055	-92
3657.818	-99
3660.579	-95
3663.338	-98
3666.095	-102
3668.849	-100
3671.602	-104
3674.352	-107
3677.101	-110
3679.847	-108
3682.591	-114
3685.333	-106
3688.073	-105
3690.811	-110
3693.547	-122
3696.281	-113
3699.013	-119
3701.742	-117
3704.47	-118
3707.195	-115
3709.919	-118
3712.64	-119
3715.359	-122
3718.076	-119
3720.792	-123
3723.505	-127
3726.216	-121
3728.925	-126
3731.632	-119
3734.336	-127
3737.039	-124
3739.74	-130
3742.439	-134
3745.136	-120
3747.83	-134
3750.523	-123
3753.213	-128
3755.902	-125
3758.589	-134
3761.273	-126
3763.956	-126
3766.636	-131
3769.315	-119
3771.991	-122
3774.665	-134
3777.338	-123
3780.008	-128
3782.677	-135
3785.343	-131
3788.007	-130
3790.67	-129
3793.33	-126
3795.989	-129
3798.645	-127
3801.299	-135
3803.952	-137
3806.602	-130
3809.251	-139
3811.897	-137
3814.542	-132
3817.184	-126
3819.825	-132
3822.463	-128
3825.1	-134
3827.735	-133
3830.367	-134
3832.998	-131
3835.627	-132
3838.253	-128
3840.878	-139
3843.501	-130
3846.122	-135
3848.741	-136
3851.358	-129
3853.973	-136
3856.586	-126
3859.197	-139
3861.806	-132
3864.414	-135
3867.019	-130
3869.622	-134
3872.224	-119
3874.823	-107
3877.421	-93
3880.016	-67
3882.61	-39
3885.202	-41
3887.792	-60
3890.38	-91
3892.966	-116
3895.55	-128
3898.132	-123
3900.713	-135
3903.291	-135
3905.868	-139
3908.442	-134
3911.015	-136
3913.586	-138
3916.155	-135
3918.722	-135
3921.287	-132
3923.85	-133
3926.411	-136
3928.971	-133
3931.528	-138
3934.084	-131
3936.638	-130
3939.19	-137
3941.74	-137
3944.288	-138
3946.834	-132
3949.378	-131
3951.921	-133
3954.462	-142
3957	-133
3959.537	-134
3962.072	-136
3964.606	-134
3967.137	-134
3969.667	-139
3972.194	-139
3974.72	-138
3977.244	-133
3979.766	-132
3982.286	-136
3984.805	-134
3987.321	-130
3989.836	-131
3992.349	-137
3994.86	-135
3997.369	-131
3999.877	-130
4002.382	-127
4004.886	-137
4007.388	-133
4009.888	-133
4012.386	-134
4014.883	-136
4017.377	-136
4019.87	-132
4022.361	-135
4024.85	-134
4027.338	-133
4029.823	-132
4032.307	-133
4034.789	-136
4037.269	-139
4039.747	-129
4042.224	-135
4044.699	-135
4047.172	-128
4049.643	-128
4052.112	-131
4054.58	-139
4057.046	-133
4059.51	-135
4061.972	-133
4064.432	-128
4066.891	-134
4069.348	-128
4071.803	-139
4074.256	-137
4076.708	-135
4079.158	-135
4081.606	-127
4084.052	-135
4086.497	-132
4088.939	-124
4091.38	-133
4093.819	-133
4096.257	-143
4098.693	-140
4101.127	-137
4103.559	-135
4105.989	21
4108.418	13
4110.845	17
4113.27	6
4115.694	7
4118.115	6
4120.535	-136
4122.954	-136
4125.37	-134
4127.785	-135
4130.198	-132
4132.609	-133
4135.019	-141
4137.427	-144
4139.833	-143
4142.237	-142
