Data from 2018-2-8_conc=2_n=10_RamanShift_04.txt Node
Date: Mon Mar 12 14:26:28 IST 2018
User: aro
Spectrometer: QEPB0276
Trigger mode: 0
Integration Time (sec): 3.000000E1
Scans to average: 1
Electric dark correction enabled: true
Nonlinearity correction enabled: false
Boxcar width: 0
XAxis mode: Raman Shifts
Number of Pixels in Spectrum: 1044
>>>>>Begin Spectral Data<<<<<
160.701	8
166.742	41
172.777	113
178.805	357
184.826	1000
190.841	2143
196.849	3600
202.85	4708
208.845	5154
214.833	5144
220.815	5083
226.789	5073
232.758	5047
238.719	5032
244.674	5012
250.623	4949
256.565	4896
262.5	4862
268.429	4748
274.351	4743
280.267	4688
286.176	4666
292.079	4643
297.975	4617
303.865	4597
309.748	4599
315.625	4532
321.495	4549
327.359	4580
333.217	4547
339.068	4558
344.912	4586
350.751	4570
356.583	4576
362.408	4591
368.227	4557
374.04	4601
379.847	4641
385.647	4632
391.44	4659
397.228	4668
403.009	4669
408.784	4713
414.553	4700
420.315	4732
426.071	4719
431.821	4731
437.565	4713
443.302	4702
449.033	4729
454.758	4704
460.477	4679
466.189	4695
471.896	4640
477.596	4593
483.29	4582
488.978	4554
494.66	4563
500.335	4488
506.005	4413
511.668	4271
517.325	4120
522.977	4060
528.622	3938
534.261	3915
539.894	3866
545.521	3862
551.141	3828
556.756	3767
562.365	3794
567.968	3738
573.565	3709
579.155	3702
584.74	3668
590.319	3702
595.892	3680
601.459	3656
607.02	3660
612.575	3621
618.124	3574
623.667	3558
629.204	3542
634.735	3497
640.261	3483
645.781	3467
651.294	3452
656.802	3472
662.304	3426
667.8	3410
673.29	3433
678.775	3423
684.254	3388
689.726	3404
695.193	3371
700.655	3368
706.11	3350
711.56	3337
717.004	3319
722.442	3270
727.874	3285
733.301	3266
738.722	3230
744.137	3224
749.547	3216
754.951	3232
760.349	3229
765.741	3255
771.128	3233
776.509	3281
781.885	3276
787.254	3279
792.618	3283
797.977	3262
803.33	3227
808.677	3188
814.019	3213
819.355	3181
824.686	3152
830.011	3123
835.33	3134
840.644	3139
845.952	3135
851.255	3130
856.552	3090
861.844	3113
867.13	3071
872.41	3061
877.686	3041
882.955	3020
888.219	2981
893.478	2984
898.731	2909
903.979	2895
909.221	2848
914.458	2847
919.69	2839
924.916	2830
930.136	2844
935.351	2859
940.561	2860
945.766	2846
950.965	2842
956.158	2814
961.347	2779
966.529	2769
971.707	2717
976.879	2669
982.046	2656
987.208	2639
992.364	2630
997.515	2659
1002.66	2702
1007.801	2685
1012.936	2705
1018.066	2721
1023.19	2717
1028.309	2720
1033.423	2747
1038.532	2703
1043.636	2694
1048.734	2679
1053.827	2623
1058.915	2602
1063.998	2593
1069.075	2562
1074.147	2569
1079.214	2564
1084.276	2574
1089.333	2604
1094.385	2605
1099.431	2620
1104.472	2621
1109.509	2587
1114.54	2555
1119.565	2542
1124.586	2491
1129.602	2453
1134.613	2436
1139.618	2422
1144.619	2414
1149.614	2426
1154.604	2425
1159.589	2436
1164.57	2434
1169.545	2428
1174.515	2454
1179.48	2440
1184.44	2401
1189.395	2380
1194.345	2372
1199.29	2356
1204.23	2358
1209.165	2354
1214.095	2372
1219.021	2378
1223.941	2404
1228.856	2405
1233.766	2421
1238.672	2420
1243.572	2413
1248.467	2393
1253.358	2370
1258.244	2329
1263.124	2305
1268	2252
1272.871	2231
1277.737	2217
1282.599	2205
1287.455	2196
1292.306	2187
1297.153	2221
1301.995	2239
1306.832	2226
1311.664	2261
1316.491	2274
1321.314	2248
1326.132	2253
1330.945	2199
1335.753	2179
1340.556	2146
1345.354	2118
1350.148	2065
1354.937	2039
1359.722	2011
1364.501	1981
1369.276	1938
1374.046	1911
1378.811	1888
1383.572	1879
1388.327	1855
1393.079	1879
1397.825	1886
1402.567	1870
1407.304	1895
1412.036	1890
1416.764	1884
1421.487	1888
1426.205	1887
1430.919	1885
1435.628	1910
1440.333	1935
1445.032	1928
1449.727	1950
1454.418	1969
1459.104	1961
1463.785	1920
1468.462	1904
1473.134	1848
1477.802	1808
1482.465	1776
1487.123	1753
1491.777	1713
1496.426	1693
1501.071	1674
1505.711	1682
1510.347	1665
1514.978	1672
1519.604	1682
1524.226	1666
1528.844	1646
1533.457	1644
1538.065	1621
1542.669	1634
1547.269	1645
1551.864	1643
1556.454	1641
1561.041	1678
1565.622	1686
1570.199	1668
1574.772	1712
1579.34	1720
1583.904	1754
1588.464	1742
1593.019	1757
1597.569	1776
1602.115	1741
1606.657	1752
1611.195	1731
1615.728	1725
1620.256	1731
1624.78	1735
1629.3	1719
1633.816	1755
1638.327	1776
1642.834	1766
1647.336	1769
1651.834	1786
1656.328	1758
1660.817	1766
1665.302	1736
1669.783	1721
1674.259	1674
1678.732	1641
1683.199	1592
1687.663	1515
1692.122	1472
1696.577	1432
1701.028	1357
1705.474	1304
1709.917	1283
1714.355	1247
1718.788	1244
1723.218	1249
1727.643	1251
1732.064	1234
1736.481	1239
1740.893	1187
1745.301	1183
1749.705	1146
1754.105	1131
1758.501	1119
1762.893	1102
1767.28	1096
1771.663	1062
1776.042	1075
1780.417	1054
1784.787	1044
1789.154	1043
1793.516	1022
1797.874	1003
1802.228	985
1806.578	975
1810.924	968
1815.266	957
1819.603	965
1823.937	966
1828.266	950
1832.591	958
1836.913	966
1841.23	968
1845.543	969
1849.852	973
1854.156	966
1858.457	957
1862.754	970
1867.047	964
1871.335	956
1875.62	967
1879.9	959
1884.177	960
1888.449	936
1892.718	928
1896.982	910
1901.243	886
1905.499	880
1909.752	887
1914	870
1918.245	844
1922.485	845
1926.722	837
1930.954	826
1935.183	822
1939.408	831
1943.628	830
1947.845	823
1952.058	820
1956.267	811
1960.472	794
1964.673	778
1968.87	787
1973.063	769
1977.252	763
1981.438	787
1985.619	772
1989.797	782
1993.971	775
1998.14	772
2002.306	788
2006.469	781
2010.627	786
2014.781	781
2018.932	787
2023.078	768
2027.221	788
2031.36	748
2035.495	761
2039.627	740
2043.754	729
2047.878	727
2051.998	724
2056.114	711
2060.226	715
2064.334	712
2068.439	725
2072.54	711
2076.637	712
2080.73	703
2084.82	687
2088.906	680
2092.988	684
2097.066	670
2101.14	665
2105.211	664
2109.278	655
2113.342	646
2117.401	638
2121.457	636
2125.509	624
2129.558	632
2133.602	641
2137.643	627
2141.681	634
2145.714	640
2149.744	643
2153.77	622
2157.793	635
2161.812	615
2165.827	609
2169.838	608
2173.846	610
2177.851	601
2181.851	584
2185.848	576
2189.841	560
2193.831	562
2197.817	561
2201.799	561
2205.778	562
2209.753	555
2213.725	567
2217.693	555
2221.657	556
2225.618	543
2229.575	550
2233.529	540
2237.479	540
2241.425	543
2245.368	524
2249.307	520
2253.243	505
2257.175	508
2261.104	500
2265.029	487
2268.95	490
2272.868	485
2276.783	482
2280.694	473
2284.601	464
2288.505	453
2292.405	456
2296.302	454
2300.195	453
2304.085	444
2307.971	438
2311.854	432
2315.734	418
2319.609	419
2323.482	413
2327.351	419
2331.216	421
2335.078	445
2338.937	430
2342.792	404
2346.643	390
2350.492	404
2354.336	408
2358.178	404
2362.015	393
2365.85	406
2369.681	399
2373.508	414
2377.333	398
2381.153	399
2384.971	407
2388.785	392
2392.595	391
2396.402	390
2400.206	391
2404.007	391
2407.804	391
2411.597	380
2415.388	375
2419.174	380
2422.958	368
2426.738	371
2430.515	383
2434.289	372
2438.059	369
2441.825	370
2445.589	357
2449.349	343
2453.106	348
2456.859	337
2460.61	347
2464.356	338
2468.1	332
2471.84	326
2475.577	332
2479.311	313
2483.041	312
2486.768	314
2490.492	329
2494.213	317
2497.93	322
2501.644	316
2505.355	301
2509.062	303
2512.766	294
2516.467	298
2520.165	300
2523.859	291
2527.551	294
2531.239	289
2534.923	278
2538.605	275
2542.283	281
2545.958	264
2549.63	273
2553.299	268
2556.964	270
2560.626	263
2564.285	262
2567.941	254
2571.594	253
2575.243	250
2578.89	256
2582.533	233
2586.173	235
2589.809	236
2593.443	241
2597.073	237
2600.701	222
2604.325	222
2607.946	227
2611.564	226
2615.178	225
2618.79	232
2622.398	231
2626.004	229
2629.606	216
2633.205	216
2636.801	212
2640.394	213
2643.983	210
2647.57	212
2651.153	201
2654.734	199
2658.311	196
2661.885	189
2665.456	197
2669.025	201
2672.589	189
2676.151	197
2679.71	194
2683.266	189
2686.819	186
2690.368	179
2693.915	170
2697.458	166
2700.999	174
2704.536	173
2708.071	164
2711.602	154
2715.13	165
2718.656	153
2722.178	152
2725.697	138
2729.214	144
2732.727	156
2736.237	153
2739.744	137
2743.249	141
2746.75	141
2750.248	139
2753.743	133
2757.236	132
2760.725	134
2764.211	128
2767.695	127
2771.175	118
2774.652	124
2778.127	118
2781.598	122
2785.067	125
2788.532	117
2791.995	118
2795.455	123
2798.911	121
2802.365	128
2805.816	124
2809.264	119
2812.709	123
2816.151	124
2819.59	128
2823.026	122
2826.46	116
2829.89	118
2833.318	112
2836.742	128
2840.164	121
2843.583	128
2846.999	130
2850.412	128
2853.822	129
2857.229	125
2860.634	137
2864.035	133
2867.434	135
2870.83	148
2874.223	156
2877.613	165
2881	170
2884.385	179
2887.766	159
2891.145	167
2894.521	160
2897.894	170
2901.264	172
2904.631	170
2907.996	175
2911.358	175
2914.717	175
2918.073	183
2921.426	180
2924.777	186
2928.124	199
2931.469	190
2934.811	200
2938.15	205
2941.487	208
2944.821	210
2948.152	207
2951.48	204
2954.805	210
2958.128	211
2961.447	201
2964.765	196
2968.079	199
2971.39	199
2974.699	208
2978.005	212
2981.308	208
2984.609	215
2987.907	201
2991.202	214
2994.494	209
2997.784	209
3001.07	219
3004.355	224
3007.636	220
3010.915	232
3014.191	220
3017.464	228
3020.734	232
3024.002	233
3027.267	232
3030.53	250
3033.789	258
3037.046	254
3040.301	255
3043.552	272
3046.801	270
3050.048	276
3053.291	296
3056.532	301
3059.771	313
3063.006	329
3066.239	342
3069.469	344
3072.697	344
3075.922	359
3079.144	383
3082.364	386
3085.581	395
3088.795	391
3092.007	402
3095.216	410
3098.423	423
3101.627	440
3104.828	442
3108.026	447
3111.222	465
3114.416	474
3117.607	479
3120.795	493
3123.98	497
3127.163	511
3130.344	535
3133.521	544
3136.696	548
3139.869	559
3143.039	556
3146.206	563
3149.371	581
3152.533	593
3155.693	607
3158.85	612
3162.005	608
3165.157	601
3168.306	606
3171.453	610
3174.597	611
3177.739	619
3180.878	618
3184.014	626
3187.149	632
3190.28	626
3193.409	639
3196.536	625
3199.659	648
3202.781	635
3205.9	635
3209.016	656
3212.13	634
3215.241	630
3218.35	624
3221.456	608
3224.56	604
3227.661	605
3230.76	607
3233.856	588
3236.95	591
3240.041	567
3243.13	561
3246.216	569
3249.3	552
3252.382	545
3255.46	540
3258.537	540
3261.611	534
3264.682	515
3267.751	526
3270.818	527
3273.882	517
3276.943	508
3280.002	509
3283.059	509
3286.113	502
3289.165	493
3292.214	496
3295.261	486
3298.306	481
3301.348	476
3304.387	461
3307.425	464
3310.459	464
3313.492	453
3316.521	439
3319.549	444
3322.574	441
3325.597	431
3328.617	446
3331.635	440
3334.65	437
3337.663	423
3340.674	437
3343.682	436
3346.688	431
3349.691	430
3352.692	425
3355.691	424
3358.687	408
3361.681	420
3364.673	414
3367.662	413
3370.649	398
3373.633	396
3376.615	380
3379.595	380
3382.572	377
3385.547	376
3388.52	366
3391.49	360
3394.458	357
3397.424	343
3400.387	346
3403.348	332
3406.307	327
3409.263	328
3412.217	328
3415.168	326
3418.118	320
3421.065	312
3424.009	305
3426.951	306
3429.891	295
3432.829	281
3435.764	288
3438.697	268
3441.628	271
3444.557	257
3447.483	248
3450.407	229
3453.328	226
3456.247	217
3459.164	209
3462.079	201
3464.991	188
3467.902	177
3470.809	185
3473.715	168
3476.618	151
3479.519	156
3482.418	150
3485.315	145
3488.209	128
3491.101	130
3493.99	133
3496.878	123
3499.763	105
3502.646	107
3505.527	88
3508.405	91
3511.281	88
3514.155	82
3517.027	77
3519.897	64
3522.764	52
3525.629	44
3528.492	52
3531.352	44
3534.211	39
3537.067	32
3539.921	24
3542.773	19
3545.622	10
3548.469	8
3551.315	3
3554.157	-3
3556.998	-4
3559.837	-4
3562.673	-17
3565.507	-12
3568.339	-15
3571.169	-24
3573.996	-23
3576.822	-27
3579.645	-30
3582.466	-32
3585.285	-39
3588.101	-31
3590.916	-45
3593.728	-51
3596.538	-42
3599.346	-46
3602.152	-46
3604.956	-47
3607.757	-53
3610.556	-55
3613.354	-59
3616.149	-67
3618.942	-68
3621.732	-66
3624.521	-72
3627.307	-71
3630.092	-70
3632.874	-70
3635.654	-79
3638.432	-71
3641.208	-75
3643.982	-82
3646.753	-82
3649.523	-90
3652.29	-84
3655.055	-88
3657.818	-89
3660.579	-87
3663.338	-84
3666.095	-93
3668.849	-93
3671.602	-91
3674.352	-98
3677.101	-96
3679.847	-96
3682.591	-105
3685.333	-96
3688.073	-101
3690.811	-101
3693.547	-104
3696.281	-103
3699.013	-104
3701.742	-107
3704.47	-108
3707.195	-107
3709.919	-106
3712.64	-106
3715.359	-113
3718.076	-109
3720.792	-110
3723.505	-116
3726.216	-108
3728.925	-115
3731.632	-110
3734.336	-115
3737.039	-112
3739.74	-119
3742.439	-121
3745.136	-111
3747.83	-121
3750.523	-114
3753.213	-109
3755.902	-111
3758.589	-114
3761.273	-115
3763.956	-109
3766.636	-117
3769.315	-113
3771.991	-113
3774.665	-120
3777.338	-112
3780.008	-115
3782.677	-121
3785.343	-119
3788.007	-123
3790.67	-119
3793.33	-121
3795.989	-122
3798.645	-113
3801.299	-115
3803.952	-117
3806.602	-113
3809.251	-128
3811.897	-123
3814.542	-122
3817.184	-116
3819.825	-122
3822.463	-119
3825.1	-115
3827.735	-119
3830.367	-125
3832.998	-128
3835.627	-120
3838.253	-121
3840.878	-121
3843.501	-117
3846.122	-119
3848.741	-125
3851.358	-117
3853.973	-125
3856.586	-123
3859.197	-129
3861.806	-124
3864.414	-123
3867.019	-117
3869.622	-115
3872.224	-112
3874.823	-107
3877.421	-98
3880.016	-85
3882.61	-64
3885.202	-62
3887.792	-71
3890.38	-94
3892.966	-113
3895.55	-118
3898.132	-121
3900.713	-123
3903.291	-127
3905.868	-125
3908.442	-124
3911.015	-124
3913.586	-124
3916.155	-128
3918.722	-125
3921.287	-123
3923.85	-124
3926.411	-130
3928.971	-125
3931.528	-121
3934.084	-121
3936.638	-118
3939.19	-128
3941.74	-128
3944.288	-124
3946.834	-122
3949.378	-122
3951.921	-119
3954.462	-131
3957	-124
3959.537	-123
3962.072	-128
3964.606	-123
3967.137	-125
3969.667	-126
3972.194	-130
3974.72	-122
3977.244	-126
3979.766	-124
3982.286	-125
3984.805	-130
3987.321	-126
3989.836	-117
3992.349	-125
3994.86	-118
3997.369	-122
3999.877	-123
4002.382	-120
4004.886	-124
4007.388	-121
4009.888	-119
4012.386	-125
4014.883	-119
4017.377	-121
4019.87	-121
4022.361	-127
4024.85	-124
4027.338	-122
4029.823	-118
4032.307	-115
4034.789	-127
4037.269	-121
4039.747	-121
4042.224	-124
4044.699	-129
4047.172	-120
4049.643	-117
4052.112	-120
4054.58	-124
4057.046	-122
4059.51	-124
4061.972	-121
4064.432	-116
4066.891	-118
4069.348	-119
4071.803	-120
4074.256	-124
4076.708	-120
4079.158	-119
4081.606	-117
4084.052	-127
4086.497	-118
4088.939	-118
4091.38	-119
4093.819	-121
4096.257	-127
4098.693	-125
4101.127	-129
4103.559	-124
4105.989	-11
4108.418	-10
4110.845	-9
4113.27	-15
4115.694	-14
4118.115	-14
4120.535	-124
4122.954	-125
4125.37	-123
4127.785	-127
4130.198	-122
4132.609	-119
4135.019	-127
4137.427	-131
4139.833	-128
4142.237	-133
