Data from 2018-2-8_conc=6_n=6_RamanShift_04.txt Node
Date: Mon Mar 12 16:40:27 IST 2018
User: aro
Spectrometer: QEPB0276
Trigger mode: 0
Integration Time (sec): 3.000000E1
Scans to average: 1
Electric dark correction enabled: true
Nonlinearity correction enabled: false
Boxcar width: 0
XAxis mode: Raman Shifts
Number of Pixels in Spectrum: 1044
>>>>>Begin Spectral Data<<<<<
160.701	6
166.742	40
172.777	129
178.805	398
184.826	1083
190.841	2336
196.849	3904
202.85	5054
208.845	5554
214.833	5535
220.815	5427
226.789	5417
232.758	5400
238.719	5413
244.674	5378
250.623	5308
256.565	5264
262.5	5175
268.429	5089
274.351	5029
280.267	4986
286.176	4954
292.079	4961
297.975	4950
303.865	4879
309.748	4902
315.625	4888
321.495	4870
327.359	4845
333.217	4876
339.068	4838
344.912	4892
350.751	4850
356.583	4896
362.408	4909
368.227	4893
374.04	4892
379.847	4934
385.647	4925
391.44	4964
397.228	4994
403.009	5009
408.784	5025
414.553	5025
420.315	5061
426.071	5048
431.821	5050
437.565	5029
443.302	5073
449.033	5034
454.758	5015
460.477	5007
466.189	4980
471.896	4924
477.596	4906
483.29	4878
488.978	4878
494.66	4850
500.335	4776
506.005	4669
511.668	4562
517.325	4417
522.977	4327
528.622	4214
534.261	4156
539.894	4117
545.521	4098
551.141	4071
556.756	4042
562.365	4028
567.968	3967
573.565	3954
579.155	3956
584.74	3934
590.319	3883
595.892	3883
601.459	3883
607.02	3876
612.575	3839
618.124	3801
623.667	3784
629.204	3758
634.735	3704
640.261	3693
645.781	3661
651.294	3680
656.802	3649
662.304	3666
667.8	3634
673.29	3644
678.775	3618
684.254	3604
689.726	3585
695.193	3582
700.655	3546
706.11	3541
711.56	3527
717.004	3516
722.442	3505
727.874	3474
733.301	3438
738.722	3450
744.137	3425
749.547	3428
754.951	3426
760.349	3423
765.741	3444
771.128	3479
776.509	3450
781.885	3499
787.254	3503
792.618	3509
797.977	3465
803.33	3420
808.677	3409
814.019	3385
819.355	3387
824.686	3348
830.011	3334
835.33	3328
840.644	3338
845.952	3334
851.255	3290
856.552	3325
861.844	3282
867.13	3283
872.41	3245
877.686	3237
882.955	3181
888.219	3167
893.478	3131
898.731	3102
903.979	3046
909.221	3049
914.458	3018
919.69	3024
924.916	3007
930.136	3024
935.351	3008
940.561	3034
945.766	3021
950.965	3041
956.158	2995
961.347	2951
966.529	2916
971.707	2874
976.879	2840
982.046	2818
987.208	2808
992.364	2802
997.515	2800
1002.66	2837
1007.801	2866
1012.936	2872
1018.066	2893
1023.19	2903
1028.309	2911
1033.423	2911
1038.532	2878
1043.636	2861
1048.734	2834
1053.827	2784
1058.915	2755
1063.998	2748
1069.075	2725
1074.147	2730
1079.214	2738
1084.276	2743
1089.333	2756
1094.385	2769
1099.431	2763
1104.472	2753
1109.509	2783
1114.54	2698
1119.565	2683
1124.586	2659
1129.602	2610
1134.613	2592
1139.618	2569
1144.619	2572
1149.614	2573
1154.604	2568
1159.589	2579
1164.57	2604
1169.545	2572
1174.515	2592
1179.48	2584
1184.44	2578
1189.395	2557
1194.345	2541
1199.29	2504
1204.23	2498
1209.165	2511
1214.095	2525
1219.021	2519
1223.941	2537
1228.856	2570
1233.766	2565
1238.672	2544
1243.572	2547
1248.467	2552
1253.358	2516
1258.244	2497
1263.124	2454
1268	2381
1272.871	2401
1277.737	2364
1282.599	2343
1287.455	2347
1292.306	2349
1297.153	2351
1301.995	2354
1306.832	2380
1311.664	2410
1316.491	2394
1321.314	2382
1326.132	2399
1330.945	2369
1335.753	2313
1340.556	2272
1345.354	2263
1350.148	2208
1354.937	2200
1359.722	2149
1364.501	2114
1369.276	2073
1374.046	2050
1378.811	2012
1383.572	2019
1388.327	2014
1393.079	2026
1397.825	2003
1402.567	2010
1407.304	2001
1412.036	2029
1416.764	2006
1421.487	2014
1426.205	2027
1430.919	2022
1435.628	2048
1440.333	2049
1445.032	2072
1449.727	2090
1454.418	2102
1459.104	2077
1463.785	2048
1468.462	2018
1473.134	1996
1477.802	1947
1482.465	1895
1487.123	1884
1491.777	1854
1496.426	1820
1501.071	1802
1505.711	1802
1510.347	1808
1514.978	1816
1519.604	1816
1524.226	1795
1528.844	1793
1533.457	1771
1538.065	1771
1542.669	1766
1547.269	1767
1551.864	1765
1556.454	1791
1561.041	1790
1565.622	1797
1570.199	1825
1574.772	1834
1579.34	1873
1583.904	1867
1588.464	1903
1593.019	1896
1597.569	1899
1602.115	1891
1606.657	1889
1611.195	1884
1615.728	1889
1620.256	1880
1624.78	1874
1629.3	1893
1633.816	1882
1638.327	1894
1642.834	1901
1647.336	1929
1651.834	1925
1656.328	1910
1660.817	1915
1665.302	1896
1669.783	1843
1674.259	1819
1678.732	1773
1683.199	1737
1687.663	1663
1692.122	1628
1696.577	1538
1701.028	1479
1705.474	1449
1709.917	1391
1714.355	1371
1718.788	1377
1723.218	1368
1727.643	1369
1732.064	1347
1736.481	1341
1740.893	1294
1745.301	1290
1749.705	1266
1754.105	1228
1758.501	1212
1762.893	1198
1767.28	1191
1771.663	1164
1776.042	1164
1780.417	1141
1784.787	1137
1789.154	1134
1793.516	1119
1797.874	1103
1802.228	1075
1806.578	1080
1810.924	1061
1815.266	1060
1819.603	1056
1823.937	1050
1828.266	1062
1832.591	1046
1836.913	1041
1841.23	1046
1845.543	1045
1849.852	1053
1854.156	1041
1858.457	1074
1862.754	1045
1867.047	1045
1871.335	1051
1875.62	1047
1879.9	1056
1884.177	1039
1888.449	1029
1892.718	1028
1896.982	994
1901.243	990
1905.499	981
1909.752	966
1914	956
1918.245	956
1922.485	929
1926.722	926
1930.954	920
1935.183	923
1939.408	906
1943.628	903
1947.845	889
1952.058	893
1956.267	880
1960.472	886
1964.673	884
1968.87	857
1973.063	856
1977.252	838
1981.438	857
1985.619	853
1989.797	856
1993.971	862
1998.14	853
2002.306	851
2006.469	853
2010.627	863
2014.781	860
2018.932	867
2023.078	866
2027.221	847
2031.36	853
2035.495	835
2039.627	818
2043.754	799
2047.878	802
2051.998	801
2056.114	794
2060.226	799
2064.334	796
2068.439	781
2072.54	789
2076.637	787
2080.73	790
2084.82	781
2088.906	771
2092.988	764
2097.066	751
2101.14	740
2105.211	732
2109.278	715
2113.342	706
2117.401	693
2121.457	702
2125.509	704
2129.558	707
2133.602	704
2137.643	695
2141.681	688
2145.714	697
2149.744	693
2153.77	688
2157.793	686
2161.812	685
2165.827	674
2169.838	669
2173.846	655
2177.851	641
2181.851	626
2185.848	634
2189.841	624
2193.831	625
2197.817	615
2201.799	607
2205.778	609
2209.753	609
2213.725	604
2217.693	615
2221.657	620
2225.618	607
2229.575	604
2233.529	594
2237.479	597
2241.425	587
2245.368	576
2249.307	571
2253.243	552
2257.175	555
2261.104	556
2265.029	531
2268.95	530
2272.868	519
2276.783	509
2280.694	515
2284.601	499
2288.505	508
2292.405	497
2296.302	483
2300.195	481
2304.085	484
2307.971	463
2311.854	464
2315.734	455
2319.609	442
2323.482	449
2327.351	443
2331.216	444
2335.078	467
2338.937	446
2342.792	429
2346.643	426
2350.492	435
2354.336	424
2358.178	430
2362.015	442
2365.85	435
2369.681	429
2373.508	436
2377.333	424
2381.153	442
2384.971	428
2388.785	432
2392.595	423
2396.402	424
2400.206	407
2404.007	416
2407.804	412
2411.597	407
2415.388	412
2419.174	402
2422.958	401
2426.738	400
2430.515	398
2434.289	407
2438.059	388
2441.825	395
2445.589	395
2449.349	383
2453.106	376
2456.859	369
2460.61	367
2464.356	363
2468.1	365
2471.84	351
2475.577	356
2479.311	336
2483.041	340
2486.768	333
2490.492	341
2494.213	347
2497.93	333
2501.644	331
2505.355	326
2509.062	322
2512.766	330
2516.467	319
2520.165	320
2523.859	313
2527.551	317
2531.239	301
2534.923	295
2538.605	294
2542.283	290
2545.958	288
2549.63	286
2553.299	289
2556.964	287
2560.626	281
2564.285	268
2567.941	279
2571.594	272
2575.243	263
2578.89	255
2582.533	258
2586.173	252
2589.809	246
2593.443	249
2597.073	245
2600.701	243
2604.325	229
2607.946	236
2611.564	245
2615.178	243
2618.79	236
2622.398	234
2626.004	232
2629.606	228
2633.205	226
2636.801	227
2640.394	225
2643.983	226
2647.57	225
2651.153	222
2654.734	213
2658.311	201
2661.885	194
2665.456	209
2669.025	214
2672.589	214
2676.151	213
2679.71	206
2683.266	200
2686.819	191
2690.368	191
2693.915	183
2697.458	179
2700.999	185
2704.536	182
2708.071	172
2711.602	173
2715.13	171
2718.656	165
2722.178	169
2725.697	163
2729.214	159
2732.727	163
2736.237	170
2739.744	162
2743.249	146
2746.75	145
2750.248	153
2753.743	150
2757.236	143
2760.725	136
2764.211	143
2767.695	133
2771.175	131
2774.652	116
2778.127	133
2781.598	126
2785.067	136
2788.532	126
2791.995	134
2795.455	131
2798.911	128
2802.365	131
2805.816	143
2809.264	129
2812.709	145
2816.151	137
2819.59	142
2823.026	128
2826.46	125
2829.89	133
2833.318	128
2836.742	131
2840.164	131
2843.583	136
2846.999	140
2850.412	136
2853.822	144
2857.229	142
2860.634	150
2864.035	155
2867.434	158
2870.83	157
2874.223	174
2877.613	166
2881	173
2884.385	183
2887.766	163
2891.145	165
2894.521	175
2897.894	173
2901.264	191
2904.631	175
2907.996	182
2911.358	186
2914.717	183
2918.073	201
2921.426	190
2924.777	206
2928.124	206
2931.469	211
2934.811	207
2938.15	225
2941.487	230
2944.821	228
2948.152	228
2951.48	223
2954.805	228
2958.128	228
2961.447	216
2964.765	222
2968.079	228
2971.39	221
2974.699	221
2978.005	228
2981.308	234
2984.609	228
2987.907	225
2991.202	239
2994.494	240
2997.784	244
3001.07	246
3004.355	258
3007.636	249
3010.915	252
3014.191	248
3017.464	259
3020.734	254
3024.002	269
3027.267	278
3030.53	275
3033.789	283
3037.046	292
3040.301	289
3043.552	308
3046.801	315
3050.048	321
3053.291	334
3056.532	334
3059.771	356
3063.006	368
3066.239	372
3069.469	387
3072.697	394
3075.922	412
3079.144	429
3082.364	439
3085.581	443
3088.795	445
3092.007	453
3095.216	474
3098.423	473
3101.627	482
3104.828	501
3108.026	507
3111.222	516
3114.416	534
3117.607	546
3120.795	545
3123.98	560
3127.163	573
3130.344	612
3133.521	615
3136.696	627
3139.869	629
3143.039	630
3146.206	645
3149.371	654
3152.533	671
3155.693	668
3158.85	678
3162.005	686
3165.157	694
3168.306	689
3171.453	689
3174.597	692
3177.739	696
3180.878	697
3184.014	705
3187.149	704
3190.28	715
3193.409	703
3196.536	711
3199.659	729
3202.781	726
3205.9	732
3209.016	741
3212.13	710
3215.241	724
3218.35	709
3221.456	707
3224.56	697
3227.661	686
3230.76	681
3233.856	676
3236.95	664
3240.041	659
3243.13	638
3246.216	631
3249.3	620
3252.382	615
3255.46	610
3258.537	601
3261.611	601
3264.682	599
3267.751	589
3270.818	588
3273.882	593
3276.943	579
3280.002	586
3283.059	578
3286.113	568
3289.165	567
3292.214	554
3295.261	544
3298.306	548
3301.348	541
3304.387	537
3307.425	524
3310.459	526
3313.492	508
3316.521	510
3319.549	504
3322.574	504
3325.597	503
3328.617	500
3331.635	500
3334.65	482
3337.663	487
3340.674	489
3343.682	492
3346.688	487
3349.691	486
3352.692	488
3355.691	474
3358.687	469
3361.681	467
3364.673	469
3367.662	450
3370.649	439
3373.633	440
3376.615	434
3379.595	435
3382.572	427
3385.547	417
3388.52	416
3391.49	401
3394.458	414
3397.424	385
3400.387	384
3403.348	385
3406.307	371
3409.263	367
3412.217	358
3415.168	362
3418.118	357
3421.065	342
3424.009	347
3426.951	344
3429.891	340
3432.829	324
3435.764	319
3438.697	299
3441.628	304
3444.557	301
3447.483	287
3450.407	268
3453.328	256
3456.247	249
3459.164	243
3462.079	221
3464.991	220
3467.902	211
3470.809	211
3473.715	198
3476.618	184
3479.519	179
3482.418	174
3485.315	156
3488.209	155
3491.101	152
3493.99	156
3496.878	138
3499.763	132
3502.646	120
3505.527	113
3508.405	113
3511.281	108
3514.155	95
3517.027	90
3519.897	76
3522.764	72
3525.629	61
3528.492	52
3531.352	44
3534.211	43
3537.067	32
3539.921	40
3542.773	32
3545.622	19
3548.469	16
3551.315	7
3554.157	5
3556.998	-10
3559.837	-3
3562.673	-11
3565.507	-11
3568.339	-16
3571.169	-26
3573.996	-21
3576.822	-23
3579.645	-30
3582.466	-33
3585.285	-40
3588.101	-33
3590.916	-51
3593.728	-54
3596.538	-50
3599.346	-58
3602.152	-52
3604.956	-60
3607.757	-55
3610.556	-62
3613.354	-59
3616.149	-71
3618.942	-74
3621.732	-80
3624.521	-78
3627.307	-77
3630.092	-79
3632.874	-78
3635.654	-84
3638.432	-80
3641.208	-85
3643.982	-89
3646.753	-95
3649.523	-94
3652.29	-93
3655.055	-87
3657.818	-95
3660.579	-94
3663.338	-99
3666.095	-101
3668.849	-104
3671.602	-101
3674.352	-99
3677.101	-109
3679.847	-103
3682.591	-110
3685.333	-106
3688.073	-107
3690.811	-116
3693.547	-116
3696.281	-116
3699.013	-115
3701.742	-117
3704.47	-115
3707.195	-111
3709.919	-117
3712.64	-119
3715.359	-123
3718.076	-122
3720.792	-123
3723.505	-124
3726.216	-120
3728.925	-128
3731.632	-123
3734.336	-134
3737.039	-127
3739.74	-125
3742.439	-134
3745.136	-121
3747.83	-131
3750.523	-126
3753.213	-130
3755.902	-130
3758.589	-129
3761.273	-122
3763.956	-125
3766.636	-125
3769.315	-124
3771.991	-130
3774.665	-133
3777.338	-125
3780.008	-126
3782.677	-130
3785.343	-124
3788.007	-131
3790.67	-128
3793.33	-133
3795.989	-136
3798.645	-128
3801.299	-133
3803.952	-141
3806.602	-127
3809.251	-137
3811.897	-132
3814.542	-134
3817.184	-131
3819.825	-131
3822.463	-132
3825.1	-131
3827.735	-130
3830.367	-132
3832.998	-135
3835.627	-137
3838.253	-132
3840.878	-135
3843.501	-127
3846.122	-132
3848.741	-138
3851.358	-130
3853.973	-140
3856.586	-134
3859.197	-140
3861.806	-132
3864.414	-135
3867.019	-126
3869.622	-133
3872.224	-125
3874.823	-122
3877.421	-112
3880.016	-87
3882.61	-68
3885.202	-73
3887.792	-81
3890.38	-104
3892.966	-129
3895.55	-130
3898.132	-133
3900.713	-132
3903.291	-137
3905.868	-139
3908.442	-129
3911.015	-140
3913.586	-132
3916.155	-140
3918.722	-138
3921.287	-135
3923.85	-135
3926.411	-138
3928.971	-134
3931.528	-137
3934.084	-135
3936.638	-130
3939.19	-142
3941.74	-142
3944.288	-143
3946.834	-134
3949.378	-139
3951.921	-134
3954.462	-144
3957	-141
3959.537	-135
3962.072	-137
3964.606	-133
3967.137	-133
3969.667	-137
3972.194	-137
3974.72	-129
3977.244	-135
3979.766	-141
3982.286	-135
3984.805	-137
3987.321	-134
3989.836	-125
3992.349	-136
3994.86	-136
3997.369	-141
3999.877	-139
4002.382	-134
4004.886	-140
4007.388	-135
4009.888	-132
4012.386	-133
4014.883	-136
4017.377	-136
4019.87	-137
4022.361	-135
4024.85	-135
4027.338	-132
4029.823	-128
4032.307	-133
4034.789	-139
4037.269	-132
4039.747	-130
4042.224	-135
4044.699	-138
4047.172	-129
4049.643	-128
4052.112	-135
4054.58	-136
4057.046	-135
4059.51	-138
4061.972	-133
4064.432	-133
4066.891	-135
4069.348	-131
4071.803	-135
4074.256	-133
4076.708	-134
4079.158	-136
4081.606	-128
4084.052	-134
4086.497	-130
4088.939	-129
4091.38	-132
4093.819	-137
4096.257	-141
4098.693	-135
4101.127	-143
4103.559	-142
4105.989	-11
4108.418	-10
4110.845	-5
4113.27	-10
4115.694	-16
4118.115	-9
4120.535	-129
4122.954	-140
4125.37	-130
4127.785	-137
4130.198	-138
4132.609	-131
4135.019	-142
4137.427	-145
4139.833	-143
4142.237	-143
