Data from 2018-2-8_conc=3_n=4_RamanShift_03.txt Node
Date: Mon Mar 12 14:38:58 IST 2018
User: aro
Spectrometer: QEPB0276
Trigger mode: 0
Integration Time (sec): 3.000000E1
Scans to average: 1
Electric dark correction enabled: true
Nonlinearity correction enabled: false
Boxcar width: 0
XAxis mode: Raman Shifts
Number of Pixels in Spectrum: 1044
>>>>>Begin Spectral Data<<<<<
160.701	14
166.742	42
172.777	132
178.805	403
184.826	1110
190.841	2416
196.849	4001
202.85	5257
208.845	5726
214.833	5751
220.815	5652
226.789	5646
232.758	5656
238.719	5644
244.674	5623
250.623	5525
256.565	5478
262.5	5355
268.429	5316
274.351	5274
280.267	5248
286.176	5223
292.079	5168
297.975	5123
303.865	5154
309.748	5149
315.625	5095
321.495	5077
327.359	5085
333.217	5097
339.068	5092
344.912	5091
350.751	5113
356.583	5106
362.408	5123
368.227	5121
374.04	5093
379.847	5150
385.647	5156
391.44	5185
397.228	5206
403.009	5240
408.784	5245
414.553	5288
420.315	5286
426.071	5322
431.821	5288
437.565	5255
443.302	5278
449.033	5272
454.758	5253
460.477	5183
466.189	5187
471.896	5138
477.596	5146
483.29	5108
488.978	5124
494.66	5090
500.335	5034
506.005	4916
511.668	4763
517.325	4641
522.977	4535
528.622	4436
534.261	4417
539.894	4345
545.521	4329
551.141	4274
556.756	4255
562.365	4232
567.968	4236
573.565	4191
579.155	4169
584.74	4129
590.319	4128
595.892	4114
601.459	4093
607.02	4092
612.575	4079
618.124	4031
623.667	3994
629.204	3953
634.735	3936
640.261	3896
645.781	3898
651.294	3902
656.802	3886
662.304	3860
667.8	3842
673.29	3859
678.775	3861
684.254	3821
689.726	3794
695.193	3798
700.655	3791
706.11	3738
711.56	3718
717.004	3696
722.442	3691
727.874	3671
733.301	3655
738.722	3626
744.137	3635
749.547	3639
754.951	3634
760.349	3658
765.741	3635
771.128	3646
776.509	3654
781.885	3695
787.254	3699
792.618	3695
797.977	3663
803.33	3625
808.677	3590
814.019	3599
819.355	3563
824.686	3551
830.011	3524
835.33	3526
840.644	3506
845.952	3495
851.255	3503
856.552	3491
861.844	3474
867.13	3463
872.41	3470
877.686	3419
882.955	3395
888.219	3337
893.478	3331
898.731	3275
903.979	3220
909.221	3211
914.458	3192
919.69	3197
924.916	3186
930.136	3223
935.351	3168
940.561	3220
945.766	3216
950.965	3194
956.158	3155
961.347	3135
966.529	3092
971.707	3048
976.879	3009
982.046	2954
987.208	2965
992.364	2960
997.515	2981
1002.66	2985
1007.801	3024
1012.936	3058
1018.066	3061
1023.19	3056
1028.309	3046
1033.423	3072
1038.532	3040
1043.636	2997
1048.734	2992
1053.827	2953
1058.915	2926
1063.998	2903
1069.075	2898
1074.147	2870
1079.214	2888
1084.276	2917
1089.333	2912
1094.385	2933
1099.431	2936
1104.472	2937
1109.509	2899
1114.54	2863
1119.565	2828
1124.586	2791
1129.602	2754
1134.613	2742
1139.618	2731
1144.619	2705
1149.614	2729
1154.604	2737
1159.589	2724
1164.57	2743
1169.545	2732
1174.515	2761
1179.48	2712
1184.44	2716
1189.395	2679
1194.345	2648
1199.29	2648
1204.23	2651
1209.165	2651
1214.095	2670
1219.021	2662
1223.941	2677
1228.856	2707
1233.766	2714
1238.672	2720
1243.572	2682
1248.467	2695
1253.358	2685
1258.244	2603
1263.124	2564
1268	2520
1272.871	2492
1277.737	2478
1282.599	2478
1287.455	2477
1292.306	2478
1297.153	2476
1301.995	2501
1306.832	2501
1311.664	2515
1316.491	2536
1321.314	2504
1326.132	2480
1330.945	2469
1335.753	2439
1340.556	2401
1345.354	2373
1350.148	2331
1354.937	2292
1359.722	2252
1364.501	2227
1369.276	2174
1374.046	2135
1378.811	2117
1383.572	2109
1388.327	2118
1393.079	2113
1397.825	2095
1402.567	2121
1407.304	2112
1412.036	2097
1416.764	2097
1421.487	2116
1426.205	2113
1430.919	2127
1435.628	2118
1440.333	2145
1445.032	2194
1449.727	2193
1454.418	2205
1459.104	2227
1463.785	2157
1468.462	2122
1473.134	2083
1477.802	2060
1482.465	1989
1487.123	1959
1491.777	1921
1496.426	1905
1501.071	1906
1505.711	1898
1510.347	1871
1514.978	1864
1519.604	1884
1524.226	1868
1528.844	1864
1533.457	1857
1538.065	1848
1542.669	1844
1547.269	1853
1551.864	1826
1556.454	1845
1561.041	1865
1565.622	1878
1570.199	1893
1574.772	1913
1579.34	1930
1583.904	1961
1588.464	1986
1593.019	1975
1597.569	1981
1602.115	1974
1606.657	1970
1611.195	1971
1615.728	1959
1620.256	1962
1624.78	1949
1629.3	1950
1633.816	1961
1638.327	1977
1642.834	1997
1647.336	1985
1651.834	2011
1656.328	1985
1660.817	1972
1665.302	1957
1669.783	1932
1674.259	1871
1678.732	1845
1683.199	1800
1687.663	1746
1692.122	1691
1696.577	1611
1701.028	1545
1705.474	1472
1709.917	1437
1714.355	1410
1718.788	1401
1723.218	1405
1727.643	1397
1732.064	1385
1736.481	1364
1740.893	1346
1745.301	1337
1749.705	1288
1754.105	1277
1758.501	1268
1762.893	1236
1767.28	1229
1771.663	1195
1776.042	1201
1780.417	1189
1784.787	1168
1789.154	1157
1793.516	1155
1797.874	1137
1802.228	1118
1806.578	1124
1810.924	1104
1815.266	1087
1819.603	1100
1823.937	1084
1828.266	1085
1832.591	1086
1836.913	1090
1841.23	1091
1845.543	1087
1849.852	1080
1854.156	1083
1858.457	1080
1862.754	1082
1867.047	1084
1871.335	1082
1875.62	1083
1879.9	1092
1884.177	1062
1888.449	1045
1892.718	1059
1896.982	1037
1901.243	1010
1905.499	992
1909.752	995
1914	984
1918.245	967
1922.485	951
1926.722	951
1930.954	954
1935.183	941
1939.408	932
1943.628	932
1947.845	915
1952.058	917
1956.267	913
1960.472	912
1964.673	903
1968.87	880
1973.063	887
1977.252	870
1981.438	884
1985.619	888
1989.797	876
1993.971	883
1998.14	879
2002.306	862
2006.469	881
2010.627	876
2014.781	894
2018.932	875
2023.078	880
2027.221	883
2031.36	870
2035.495	864
2039.627	844
2043.754	829
2047.878	829
2051.998	817
2056.114	810
2060.226	805
2064.334	811
2068.439	796
2072.54	801
2076.637	804
2080.73	812
2084.82	804
2088.906	788
2092.988	771
2097.066	781
2101.14	752
2105.211	761
2109.278	734
2113.342	742
2117.401	722
2121.457	712
2125.509	716
2129.558	722
2133.602	723
2137.643	709
2141.681	716
2145.714	723
2149.744	720
2153.77	704
2157.793	708
2161.812	702
2165.827	700
2169.838	688
2173.846	662
2177.851	658
2181.851	656
2185.848	644
2189.841	648
2193.831	651
2197.817	639
2201.799	631
2205.778	639
2209.753	621
2213.725	622
2217.693	625
2221.657	628
2225.618	635
2229.575	630
2233.529	618
2237.479	611
2241.425	599
2245.368	583
2249.307	569
2253.243	581
2257.175	565
2261.104	572
2265.029	558
2268.95	555
2272.868	537
2276.783	523
2280.694	523
2284.601	524
2288.505	522
2292.405	514
2296.302	510
2300.195	503
2304.085	497
2307.971	481
2311.854	487
2315.734	470
2319.609	458
2323.482	462
2327.351	468
2331.216	475
2335.078	470
2338.937	463
2342.792	447
2346.643	447
2350.492	447
2354.336	445
2358.178	447
2362.015	448
2365.85	451
2369.681	446
2373.508	449
2377.333	448
2381.153	454
2384.971	458
2388.785	445
2392.595	434
2396.402	428
2400.206	433
2404.007	429
2407.804	425
2411.597	421
2415.388	416
2419.174	418
2422.958	412
2426.738	418
2430.515	412
2434.289	408
2438.059	401
2441.825	403
2445.589	401
2449.349	385
2453.106	384
2456.859	382
2460.61	381
2464.356	362
2468.1	364
2471.84	367
2475.577	368
2479.311	358
2483.041	352
2486.768	345
2490.492	354
2494.213	357
2497.93	351
2501.644	342
2505.355	342
2509.062	341
2512.766	342
2516.467	333
2520.165	321
2523.859	323
2527.551	318
2531.239	300
2534.923	294
2538.605	300
2542.283	300
2545.958	305
2549.63	294
2553.299	295
2556.964	288
2560.626	289
2564.285	275
2567.941	267
2571.594	276
2575.243	271
2578.89	262
2582.533	264
2586.173	259
2589.809	257
2593.443	253
2597.073	253
2600.701	255
2604.325	247
2607.946	249
2611.564	250
2615.178	252
2618.79	247
2622.398	248
2626.004	239
2629.606	239
2633.205	235
2636.801	231
2640.394	229
2643.983	218
2647.57	228
2651.153	227
2654.734	217
2658.311	216
2661.885	217
2665.456	217
2669.025	219
2672.589	205
2676.151	217
2679.71	213
2683.266	207
2686.819	199
2690.368	192
2693.915	194
2697.458	185
2700.999	191
2704.536	179
2708.071	174
2711.602	175
2715.13	177
2718.656	162
2722.178	164
2725.697	170
2729.214	164
2732.727	174
2736.237	167
2739.744	160
2743.249	155
2746.75	158
2750.248	150
2753.743	140
2757.236	150
2760.725	131
2764.211	136
2767.695	130
2771.175	127
2774.652	138
2778.127	124
2781.598	122
2785.067	137
2788.532	126
2791.995	146
2795.455	135
2798.911	134
2802.365	138
2805.816	140
2809.264	137
2812.709	142
2816.151	131
2819.59	141
2823.026	134
2826.46	132
2829.89	133
2833.318	130
2836.742	138
2840.164	128
2843.583	139
2846.999	138
2850.412	136
2853.822	139
2857.229	138
2860.634	140
2864.035	151
2867.434	151
2870.83	159
2874.223	175
2877.613	171
2881	179
2884.385	177
2887.766	172
2891.145	169
2894.521	178
2897.894	178
2901.264	182
2904.631	187
2907.996	187
2911.358	186
2914.717	188
2918.073	194
2921.426	201
2924.777	201
2928.124	209
2931.469	221
2934.811	217
2938.15	213
2941.487	236
2944.821	229
2948.152	232
2951.48	229
2954.805	230
2958.128	216
2961.447	213
2964.765	229
2968.079	222
2971.39	221
2974.699	230
2978.005	226
2981.308	234
2984.609	229
2987.907	230
2991.202	243
2994.494	237
2997.784	242
3001.07	240
3004.355	263
3007.636	247
3010.915	251
3014.191	251
3017.464	258
3020.734	264
3024.002	268
3027.267	271
3030.53	274
3033.789	286
3037.046	289
3040.301	280
3043.552	297
3046.801	308
3050.048	324
3053.291	329
3056.532	331
3059.771	352
3063.006	365
3066.239	374
3069.469	386
3072.697	393
3075.922	406
3079.144	417
3082.364	422
3085.581	441
3088.795	441
3092.007	445
3095.216	476
3098.423	469
3101.627	504
3104.828	493
3108.026	502
3111.222	514
3114.416	515
3117.607	548
3120.795	539
3123.98	547
3127.163	573
3130.344	590
3133.521	599
3136.696	597
3139.869	617
3143.039	631
3146.206	635
3149.371	642
3152.533	668
3155.693	664
3158.85	664
3162.005	679
3165.157	676
3168.306	681
3171.453	680
3174.597	683
3177.739	695
3180.878	700
3184.014	704
3187.149	695
3190.28	698
3193.409	705
3196.536	696
3199.659	718
3202.781	712
3205.9	727
3209.016	730
3212.13	727
3215.241	712
3218.35	711
3221.456	706
3224.56	696
3227.661	685
3230.76	691
3233.856	673
3236.95	648
3240.041	657
3243.13	641
3246.216	624
3249.3	614
3252.382	625
3255.46	607
3258.537	601
3261.611	607
3264.682	596
3267.751	594
3270.818	581
3273.882	586
3276.943	565
3280.002	573
3283.059	580
3286.113	553
3289.165	564
3292.214	560
3295.261	544
3298.306	544
3301.348	533
3304.387	528
3307.425	519
3310.459	515
3313.492	511
3316.521	509
3319.549	502
3322.574	500
3325.597	489
3328.617	493
3331.635	493
3334.65	491
3337.663	479
3340.674	491
3343.682	486
3346.688	478
3349.691	486
3352.692	473
3355.691	479
3358.687	479
3361.681	479
3364.673	454
3367.662	461
3370.649	456
3373.633	450
3376.615	422
3379.595	424
3382.572	431
3385.547	417
3388.52	412
3391.49	405
3394.458	390
3397.424	384
3400.387	375
3403.348	385
3406.307	378
3409.263	371
3412.217	369
3415.168	358
3418.118	359
3421.065	344
3424.009	351
3426.951	332
3429.891	325
3432.829	326
3435.764	319
3438.697	305
3441.628	297
3444.557	293
3447.483	270
3450.407	262
3453.328	254
3456.247	243
3459.164	233
3462.079	222
3464.991	203
3467.902	206
3470.809	208
3473.715	182
3476.618	182
3479.519	174
3482.418	175
3485.315	154
3488.209	151
3491.101	147
3493.99	146
3496.878	135
3499.763	122
3502.646	117
3505.527	103
3508.405	111
3511.281	93
3514.155	90
3517.027	80
3519.897	76
3522.764	67
3525.629	54
3528.492	52
3531.352	45
3534.211	37
3537.067	27
3539.921	29
3542.773	22
3545.622	7
3548.469	3
3551.315	17
3554.157	1
3556.998	-2
3559.837	-12
3562.673	-14
3565.507	-16
3568.339	-22
3571.169	-41
3573.996	-31
3576.822	-27
3579.645	-35
3582.466	-37
3585.285	-45
3588.101	-35
3590.916	-56
3593.728	-56
3596.538	-54
3599.346	-58
3602.152	-56
3604.956	-65
3607.757	-67
3610.556	-72
3613.354	-66
3616.149	-72
3618.942	-79
3621.732	-73
3624.521	-77
3627.307	-86
3630.092	-81
3632.874	-81
3635.654	-88
3638.432	-84
3641.208	-84
3643.982	-89
3646.753	-97
3649.523	-96
3652.29	-99
3655.055	-102
3657.818	-101
3660.579	-104
3663.338	-97
3666.095	-103
3668.849	-101
3671.602	-106
3674.352	-110
3677.101	-112
3679.847	-113
3682.591	-114
3685.333	-113
3688.073	-110
3690.811	-113
3693.547	-120
3696.281	-119
3699.013	-121
3701.742	-129
3704.47	-122
3707.195	-114
3709.919	-126
3712.64	-120
3715.359	-130
3718.076	-120
3720.792	-126
3723.505	-130
3726.216	-130
3728.925	-133
3731.632	-125
3734.336	-132
3737.039	-127
3739.74	-132
3742.439	-142
3745.136	-121
3747.83	-139
3750.523	-134
3753.213	-134
3755.902	-127
3758.589	-135
3761.273	-128
3763.956	-128
3766.636	-129
3769.315	-129
3771.991	-132
3774.665	-139
3777.338	-127
3780.008	-136
3782.677	-135
3785.343	-133
3788.007	-140
3790.67	-136
3793.33	-135
3795.989	-133
3798.645	-129
3801.299	-136
3803.952	-138
3806.602	-133
3809.251	-142
3811.897	-147
3814.542	-143
3817.184	-133
3819.825	-138
3822.463	-133
3825.1	-133
3827.735	-137
3830.367	-141
3832.998	-147
3835.627	-137
3838.253	-134
3840.878	-136
3843.501	-132
3846.122	-139
3848.741	-143
3851.358	-134
3853.973	-141
3856.586	-135
3859.197	-145
3861.806	-135
3864.414	-139
3867.019	-132
3869.622	-140
3872.224	-128
3874.823	-123
3877.421	-112
3880.016	-84
3882.61	-66
3885.202	-68
3887.792	-85
3890.38	-102
3892.966	-130
3895.55	-134
3898.132	-135
3900.713	-138
3903.291	-139
3905.868	-138
3908.442	-133
3911.015	-143
3913.586	-143
3916.155	-147
3918.722	-147
3921.287	-139
3923.85	-141
3926.411	-136
3928.971	-142
3931.528	-142
3934.084	-141
3936.638	-139
3939.19	-147
3941.74	-140
3944.288	-139
3946.834	-138
3949.378	-141
3951.921	-147
3954.462	-148
3957	-143
3959.537	-136
3962.072	-138
3964.606	-135
3967.137	-142
3969.667	-140
3972.194	-145
3974.72	-145
3977.244	-144
3979.766	-139
3982.286	-138
3984.805	-142
3987.321	-141
3989.836	-136
3992.349	-140
3994.86	-141
3997.369	-146
3999.877	-138
4002.382	-132
4004.886	-141
4007.388	-137
4009.888	-139
4012.386	-136
4014.883	-144
4017.377	-146
4019.87	-133
4022.361	-139
4024.85	-135
4027.338	-140
4029.823	-136
4032.307	-137
4034.789	-143
4037.269	-137
4039.747	-134
4042.224	-140
4044.699	-136
4047.172	-132
4049.643	-133
4052.112	-143
4054.58	-140
4057.046	-140
4059.51	-140
4061.972	-132
4064.432	-134
4066.891	-140
4069.348	-139
4071.803	-145
4074.256	-138
4076.708	-138
4079.158	-140
4081.606	-132
4084.052	-139
4086.497	-136
4088.939	-130
4091.38	-142
4093.819	-137
4096.257	-144
4098.693	-144
4101.127	-146
4103.559	-143
4105.989	-7
4108.418	-12
4110.845	-11
4113.27	-9
4115.694	-9
4118.115	-11
4120.535	-143
4122.954	-145
4125.37	-137
4127.785	-138
4130.198	-135
4132.609	-139
4135.019	-146
4137.427	-151
4139.833	-146
4142.237	-148
