Data from 2018-2-8_conc=4_n=3_RamanShift_01.txt Node
Date: Mon Mar 12 15:14:58 IST 2018
User: aro
Spectrometer: QEPB0276
Trigger mode: 0
Integration Time (sec): 3.000000E1
Scans to average: 1
Electric dark correction enabled: true
Nonlinearity correction enabled: false
Boxcar width: 0
XAxis mode: Raman Shifts
Number of Pixels in Spectrum: 1044
>>>>>Begin Spectral Data<<<<<
160.701	18
166.742	48
172.777	113
178.805	325
184.826	868
190.841	1861
196.849	3069
202.85	3996
208.845	4364
214.833	4367
220.815	4288
226.789	4300
232.758	4303
238.719	4298
244.674	4296
250.623	4257
256.565	4199
262.5	4149
268.429	4117
274.351	4077
280.267	4055
286.176	4030
292.079	4032
297.975	4020
303.865	4007
309.748	3994
315.625	3986
321.495	3983
327.359	3991
333.217	3992
339.068	3998
344.912	4024
350.751	4000
356.583	4030
362.408	4024
368.227	4038
374.04	4058
379.847	4080
385.647	4111
391.44	4130
397.228	4134
403.009	4171
408.784	4185
414.553	4201
420.315	4209
426.071	4207
431.821	4202
437.565	4206
443.302	4182
449.033	4165
454.758	4163
460.477	4139
466.189	4144
471.896	4077
477.596	4054
483.29	4034
488.978	4045
494.66	4023
500.335	3941
506.005	3820
511.668	3692
517.325	3539
522.977	3460
528.622	3361
534.261	3308
539.894	3254
545.521	3205
551.141	3203
556.756	3207
562.365	3155
567.968	3132
573.565	3130
579.155	3086
584.74	3076
590.319	3084
595.892	3061
601.459	3070
607.02	3067
612.575	3053
618.124	2983
623.667	2976
629.204	2942
634.735	2903
640.261	2883
645.781	2869
651.294	2876
656.802	2860
662.304	2832
667.8	2829
673.29	2848
678.775	2844
684.254	2811
689.726	2785
695.193	2803
700.655	2779
706.11	2756
711.56	2754
717.004	2727
722.442	2730
727.874	2708
733.301	2712
738.722	2673
744.137	2665
749.547	2672
754.951	2679
760.349	2690
765.741	2688
771.128	2716
776.509	2718
781.885	2758
787.254	2732
792.618	2776
797.977	2735
803.33	2723
808.677	2714
814.019	2678
819.355	2659
824.686	2646
830.011	2628
835.33	2611
840.644	2619
845.952	2609
851.255	2593
856.552	2584
861.844	2572
867.13	2561
872.41	2538
877.686	2522
882.955	2540
888.219	2468
893.478	2442
898.731	2408
903.979	2367
909.221	2347
914.458	2358
919.69	2337
924.916	2344
930.136	2347
935.351	2355
940.561	2350
945.766	2372
950.965	2360
956.158	2318
961.347	2289
966.529	2267
971.707	2221
976.879	2204
982.046	2183
987.208	2174
992.364	2169
997.515	2199
1002.66	2201
1007.801	2232
1012.936	2231
1018.066	2248
1023.19	2255
1028.309	2251
1033.423	2247
1038.532	2248
1043.636	2212
1048.734	2200
1053.827	2177
1058.915	2158
1063.998	2145
1069.075	2135
1074.147	2133
1079.214	2143
1084.276	2137
1089.333	2142
1094.385	2163
1099.431	2152
1104.472	2161
1109.509	2118
1114.54	2105
1119.565	2064
1124.586	2038
1129.602	2019
1134.613	2000
1139.618	1988
1144.619	2000
1149.614	1989
1154.604	2002
1159.589	1997
1164.57	2010
1169.545	2016
1174.515	2013
1179.48	2027
1184.44	1992
1189.395	1965
1194.345	1962
1199.29	1932
1204.23	1946
1209.165	1942
1214.095	1949
1219.021	1971
1223.941	1984
1228.856	1981
1233.766	2011
1238.672	1992
1243.572	1984
1248.467	1968
1253.358	1957
1258.244	1929
1263.124	1887
1268	1852
1272.871	1852
1277.737	1810
1282.599	1815
1287.455	1797
1292.306	1803
1297.153	1809
1301.995	1838
1306.832	1853
1311.664	1874
1316.491	1848
1321.314	1852
1326.132	1850
1330.945	1815
1335.753	1798
1340.556	1757
1345.354	1759
1350.148	1718
1354.937	1711
1359.722	1684
1364.501	1645
1369.276	1638
1374.046	1595
1378.811	1577
1383.572	1570
1388.327	1567
1393.079	1575
1397.825	1567
1402.567	1550
1407.304	1563
1412.036	1550
1416.764	1555
1421.487	1579
1426.205	1563
1430.919	1569
1435.628	1587
1440.333	1584
1445.032	1617
1449.727	1626
1454.418	1634
1459.104	1635
1463.785	1626
1468.462	1573
1473.134	1545
1477.802	1519
1482.465	1490
1487.123	1465
1491.777	1441
1496.426	1444
1501.071	1445
1505.711	1430
1510.347	1421
1514.978	1405
1519.604	1431
1524.226	1424
1528.844	1417
1533.457	1385
1538.065	1391
1542.669	1396
1547.269	1378
1551.864	1381
1556.454	1387
1561.041	1423
1565.622	1416
1570.199	1415
1574.772	1423
1579.34	1438
1583.904	1455
1588.464	1471
1593.019	1485
1597.569	1471
1602.115	1470
1606.657	1459
1611.195	1458
1615.728	1459
1620.256	1456
1624.78	1466
1629.3	1448
1633.816	1455
1638.327	1476
1642.834	1463
1647.336	1475
1651.834	1486
1656.328	1492
1660.817	1493
1665.302	1454
1669.783	1453
1674.259	1409
1678.732	1393
1683.199	1357
1687.663	1309
1692.122	1284
1696.577	1232
1701.028	1175
1705.474	1144
1709.917	1118
1714.355	1093
1718.788	1072
1723.218	1072
1727.643	1070
1732.064	1057
1736.481	1061
1740.893	1020
1745.301	1010
1749.705	1001
1754.105	979
1758.501	960
1762.893	933
1767.28	926
1771.663	922
1776.042	911
1780.417	914
1784.787	924
1789.154	909
1793.516	900
1797.874	891
1802.228	882
1806.578	858
1810.924	869
1815.266	840
1819.603	834
1823.937	847
1828.266	827
1832.591	836
1836.913	828
1841.23	836
1845.543	838
1849.852	820
1854.156	824
1858.457	842
1862.754	829
1867.047	831
1871.335	833
1875.62	830
1879.9	833
1884.177	838
1888.449	824
1892.718	799
1896.982	799
1901.243	783
1905.499	772
1909.752	787
1914	763
1918.245	768
1922.485	752
1926.722	738
1930.954	736
1935.183	733
1939.408	733
1943.628	735
1947.845	737
1952.058	729
1956.267	714
1960.472	708
1964.673	699
1968.87	677
1973.063	695
1977.252	674
1981.438	669
1985.619	683
1989.797	669
1993.971	674
1998.14	686
2002.306	675
2006.469	695
2010.627	668
2014.781	680
2018.932	674
2023.078	680
2027.221	665
2031.36	673
2035.495	667
2039.627	652
2043.754	644
2047.878	624
2051.998	626
2056.114	634
2060.226	625
2064.334	627
2068.439	630
2072.54	624
2076.637	624
2080.73	617
2084.82	612
2088.906	596
2092.988	616
2097.066	604
2101.14	594
2105.211	584
2109.278	573
2113.342	570
2117.401	565
2121.457	548
2125.509	555
2129.558	541
2133.602	569
2137.643	564
2141.681	547
2145.714	542
2149.744	543
2153.77	543
2157.793	548
2161.812	544
2165.827	530
2169.838	531
2173.846	530
2177.851	505
2181.851	496
2185.848	488
2189.841	495
2193.831	492
2197.817	492
2201.799	477
2205.778	479
2209.753	474
2213.725	471
2217.693	467
2221.657	483
2225.618	469
2229.575	466
2233.529	464
2237.479	460
2241.425	445
2245.368	445
2249.307	436
2253.243	450
2257.175	432
2261.104	417
2265.029	415
2268.95	407
2272.868	402
2276.783	398
2280.694	394
2284.601	398
2288.505	387
2292.405	371
2296.302	376
2300.195	377
2304.085	377
2307.971	351
2311.854	362
2315.734	344
2319.609	340
2323.482	334
2327.351	339
2331.216	353
2335.078	361
2338.937	346
2342.792	328
2346.643	320
2350.492	319
2354.336	322
2358.178	324
2362.015	333
2365.85	327
2369.681	334
2373.508	332
2377.333	322
2381.153	318
2384.971	323
2388.785	325
2392.595	308
2396.402	310
2400.206	310
2404.007	317
2407.804	296
2411.597	301
2415.388	291
2419.174	302
2422.958	289
2426.738	292
2430.515	286
2434.289	296
2438.059	295
2441.825	276
2445.589	285
2449.349	275
2453.106	280
2456.859	275
2460.61	268
2464.356	267
2468.1	263
2471.84	253
2475.577	255
2479.311	241
2483.041	249
2486.768	259
2490.492	246
2494.213	252
2497.93	248
2501.644	240
2505.355	242
2509.062	233
2512.766	237
2516.467	241
2520.165	237
2523.859	229
2527.551	223
2531.239	212
2534.923	220
2538.605	215
2542.283	211
2545.958	216
2549.63	227
2553.299	223
2556.964	213
2560.626	206
2564.285	194
2567.941	199
2571.594	199
2575.243	195
2578.89	185
2582.533	188
2586.173	184
2589.809	181
2593.443	177
2597.073	172
2600.701	176
2604.325	174
2607.946	179
2611.564	175
2615.178	182
2618.79	176
2622.398	174
2626.004	162
2629.606	166
2633.205	165
2636.801	164
2640.394	169
2643.983	165
2647.57	154
2651.153	153
2654.734	160
2658.311	148
2661.885	148
2665.456	155
2669.025	146
2672.589	147
2676.151	145
2679.71	146
2683.266	139
2686.819	130
2690.368	130
2693.915	139
2697.458	131
2700.999	129
2704.536	122
2708.071	110
2711.602	119
2715.13	126
2718.656	120
2722.178	118
2725.697	115
2729.214	107
2732.727	115
2736.237	114
2739.744	108
2743.249	106
2746.75	107
2750.248	103
2753.743	97
2757.236	95
2760.725	97
2764.211	86
2767.695	88
2771.175	88
2774.652	87
2778.127	92
2781.598	95
2785.067	90
2788.532	83
2791.995	85
2795.455	86
2798.911	77
2802.365	93
2805.816	96
2809.264	93
2812.709	100
2816.151	98
2819.59	94
2823.026	86
2826.46	81
2829.89	88
2833.318	86
2836.742	92
2840.164	91
2843.583	100
2846.999	90
2850.412	92
2853.822	99
2857.229	86
2860.634	99
2864.035	101
2867.434	103
2870.83	114
2874.223	122
2877.613	117
2881	134
2884.385	121
2887.766	114
2891.145	123
2894.521	118
2897.894	126
2901.264	121
2904.631	122
2907.996	123
2911.358	127
2914.717	127
2918.073	138
2921.426	140
2924.777	145
2928.124	144
2931.469	146
2934.811	150
2938.15	157
2941.487	160
2944.821	156
2948.152	157
2951.48	163
2954.805	164
2958.128	160
2961.447	148
2964.765	155
2968.079	149
2971.39	156
2974.699	165
2978.005	155
2981.308	158
2984.609	162
2987.907	159
2991.202	177
2994.494	168
2997.784	161
3001.07	175
3004.355	174
3007.636	176
3010.915	179
3014.191	177
3017.464	179
3020.734	188
3024.002	186
3027.267	194
3030.53	190
3033.789	208
3037.046	206
3040.301	201
3043.552	217
3046.801	220
3050.048	233
3053.291	240
3056.532	244
3059.771	255
3063.006	260
3066.239	270
3069.469	279
3072.697	285
3075.922	302
3079.144	308
3082.364	317
3085.581	322
3088.795	327
3092.007	331
3095.216	331
3098.423	345
3101.627	350
3104.828	371
3108.026	374
3111.222	374
3114.416	388
3117.607	396
3120.795	404
3123.98	413
3127.163	425
3130.344	437
3133.521	441
3136.696	450
3139.869	457
3143.039	466
3146.206	473
3149.371	480
3152.533	482
3155.693	495
3158.85	494
3162.005	517
3165.157	500
3168.306	502
3171.453	499
3174.597	524
3177.739	519
3180.878	522
3184.014	529
3187.149	524
3190.28	529
3193.409	519
3196.536	532
3199.659	525
3202.781	536
3205.9	544
3209.016	539
3212.13	526
3215.241	519
3218.35	528
3221.456	516
3224.56	520
3227.661	503
3230.76	518
3233.856	490
3236.95	483
3240.041	487
3243.13	470
3246.216	469
3249.3	461
3252.382	464
3255.46	457
3258.537	458
3261.611	458
3264.682	454
3267.751	446
3270.818	440
3273.882	428
3276.943	423
3280.002	422
3283.059	415
3286.113	426
3289.165	417
3292.214	416
3295.261	400
3298.306	404
3301.348	398
3304.387	383
3307.425	384
3310.459	369
3313.492	370
3316.521	364
3319.549	374
3322.574	355
3325.597	362
3328.617	358
3331.635	359
3334.65	360
3337.663	345
3340.674	360
3343.682	362
3346.688	349
3349.691	364
3352.692	341
3355.691	350
3358.687	345
3361.681	353
3364.673	341
3367.662	335
3370.649	324
3373.633	328
3376.615	309
3379.595	301
3382.572	310
3385.547	299
3388.52	303
3391.49	290
3394.458	285
3397.424	283
3400.387	272
3403.348	270
3406.307	263
3409.263	266
3412.217	262
3415.168	259
3418.118	250
3421.065	245
3424.009	244
3426.951	241
3429.891	233
3432.829	227
3435.764	225
3438.697	208
3441.628	216
3444.557	211
3447.483	188
3450.407	182
3453.328	182
3456.247	166
3459.164	165
3462.079	158
3464.991	146
3467.902	146
3470.809	152
3473.715	133
3476.618	126
3479.519	127
3482.418	118
3485.315	105
3488.209	97
3491.101	97
3493.99	105
3496.878	96
3499.763	84
3502.646	77
3505.527	74
3508.405	67
3511.281	65
3514.155	53
3517.027	47
3519.897	40
3522.764	40
3525.629	30
3528.492	28
3531.352	24
3534.211	15
3537.067	8
3539.921	10
3542.773	3
3545.622	-10
3548.469	-12
3551.315	-9
3554.157	-15
3556.998	-15
3559.837	-25
3562.673	-27
3565.507	-19
3568.339	-27
3571.169	-38
3573.996	-32
3576.822	-31
3579.645	-38
3582.466	-38
3585.285	-43
3588.101	-38
3590.916	-51
3593.728	-58
3596.538	-55
3599.346	-54
3602.152	-56
3604.956	-61
3607.757	-59
3610.556	-64
3613.354	-63
3616.149	-74
3618.942	-72
3621.732	-70
3624.521	-73
3627.307	-71
3630.092	-70
3632.874	-80
3635.654	-81
3638.432	-76
3641.208	-76
3643.982	-82
3646.753	-88
3649.523	-93
3652.29	-91
3655.055	-85
3657.818	-86
3660.579	-92
3663.338	-84
3666.095	-91
3668.849	-100
3671.602	-91
3674.352	-96
3677.101	-99
3679.847	-97
3682.591	-104
3685.333	-96
3688.073	-97
3690.811	-103
3693.547	-107
3696.281	-106
3699.013	-104
3701.742	-115
3704.47	-113
3707.195	-105
3709.919	-106
3712.64	-103
3715.359	-115
3718.076	-110
3720.792	-115
3723.505	-117
3726.216	-107
3728.925	-116
3731.632	-113
3734.336	-120
3737.039	-111
3739.74	-118
3742.439	-119
3745.136	-115
3747.83	-121
3750.523	-109
3753.213	-123
3755.902	-111
3758.589	-118
3761.273	-108
3763.956	-116
3766.636	-117
3769.315	-113
3771.991	-116
3774.665	-119
3777.338	-110
3780.008	-109
3782.677	-118
3785.343	-119
3788.007	-123
3790.67	-124
3793.33	-117
3795.989	-122
3798.645	-114
3801.299	-111
3803.952	-120
3806.602	-115
3809.251	-126
3811.897	-120
3814.542	-122
3817.184	-116
3819.825	-112
3822.463	-118
3825.1	-114
3827.735	-116
3830.367	-123
3832.998	-126
3835.627	-121
3838.253	-119
3840.878	-116
3843.501	-118
3846.122	-120
3848.741	-125
3851.358	-117
3853.973	-126
3856.586	-124
3859.197	-125
3861.806	-118
3864.414	-121
3867.019	-113
3869.622	-118
3872.224	-111
3874.823	-97
3877.421	-89
3880.016	-64
3882.61	-41
3885.202	-38
3887.792	-58
3890.38	-83
3892.966	-110
3895.55	-115
3898.132	-120
3900.713	-120
3903.291	-121
3905.868	-122
3908.442	-113
3911.015	-120
3913.586	-123
3916.155	-123
3918.722	-124
3921.287	-125
3923.85	-122
3926.411	-121
3928.971	-125
3931.528	-123
3934.084	-122
3936.638	-121
3939.19	-123
3941.74	-125
3944.288	-126
3946.834	-117
3949.378	-122
3951.921	-122
3954.462	-127
3957	-121
3959.537	-118
3962.072	-129
3964.606	-122
3967.137	-121
3969.667	-121
3972.194	-123
3974.72	-118
3977.244	-128
3979.766	-127
3982.286	-120
3984.805	-121
3987.321	-124
3989.836	-110
3992.349	-121
3994.86	-121
3997.369	-122
3999.877	-123
4002.382	-118
4004.886	-126
4007.388	-120
4009.888	-119
4012.386	-120
4014.883	-119
4017.377	-121
4019.87	-123
4022.361	-120
4024.85	-125
4027.338	-121
4029.823	-120
4032.307	-113
4034.789	-123
4037.269	-120
4039.747	-117
4042.224	-119
4044.699	-120
4047.172	-123
4049.643	-115
4052.112	-118
4054.58	-120
4057.046	-121
4059.51	-125
4061.972	-121
4064.432	-122
4066.891	-120
4069.348	-116
4071.803	-120
4074.256	-119
4076.708	-119
4079.158	-121
4081.606	-116
4084.052	-125
4086.497	-116
4088.939	-113
4091.38	-120
4093.819	-120
4096.257	-125
4098.693	-123
4101.127	-126
4103.559	-122
4105.989	26
4108.418	21
4110.845	11
4113.27	8
4115.694	1
4118.115	0
4120.535	-125
4122.954	-125
4125.37	-117
4127.785	-127
4130.198	-122
4132.609	-119
4135.019	-122
4137.427	-127
4139.833	-126
4142.237	-129
