Data from 2018-2-8_conc=4_n=8_RamanShift_04.txt Node
Date: Mon Mar 12 15:33:28 IST 2018
User: aro
Spectrometer: QEPB0276
Trigger mode: 0
Integration Time (sec): 3.000000E1
Scans to average: 1
Electric dark correction enabled: true
Nonlinearity correction enabled: false
Boxcar width: 0
XAxis mode: Raman Shifts
Number of Pixels in Spectrum: 1044
>>>>>Begin Spectral Data<<<<<
160.701	17
166.742	46
172.777	146
178.805	433
184.826	1168
190.841	2516
196.849	4177
202.85	5528
208.845	6041
214.833	6029
220.815	5946
226.789	5945
232.758	5922
238.719	5908
244.674	5879
250.623	5811
256.565	5700
262.5	5637
268.429	5539
274.351	5504
280.267	5463
286.176	5420
292.079	5397
297.975	5327
303.865	5371
309.748	5326
315.625	5332
321.495	5315
327.359	5293
333.217	5299
339.068	5280
344.912	5303
350.751	5299
356.583	5336
362.408	5318
368.227	5321
374.04	5352
379.847	5362
385.647	5381
391.44	5409
397.228	5428
403.009	5442
408.784	5471
414.553	5481
420.315	5517
426.071	5515
431.821	5531
437.565	5483
443.302	5472
449.033	5482
454.758	5455
460.477	5433
466.189	5397
471.896	5389
477.596	5353
483.29	5326
488.978	5308
494.66	5313
500.335	5233
506.005	5120
511.668	5004
517.325	4804
522.977	4740
528.622	4664
534.261	4567
539.894	4563
545.521	4509
551.141	4477
556.756	4412
562.365	4426
567.968	4391
573.565	4364
579.155	4355
584.74	4313
590.319	4300
595.892	4280
601.459	4289
607.02	4294
612.575	4252
618.124	4226
623.667	4176
629.204	4153
634.735	4107
640.261	4084
645.781	4066
651.294	4062
656.802	4062
662.304	4035
667.8	3985
673.29	3979
678.775	3985
684.254	3979
689.726	3965
695.193	3952
700.655	3940
706.11	3927
711.56	3879
717.004	3875
722.442	3865
727.874	3807
733.301	3805
738.722	3837
744.137	3773
749.547	3784
754.951	3815
760.349	3793
765.741	3780
771.128	3825
776.509	3833
781.885	3836
787.254	3823
792.618	3845
797.977	3833
803.33	3807
808.677	3775
814.019	3754
819.355	3750
824.686	3663
830.011	3679
835.33	3669
840.644	3682
845.952	3639
851.255	3664
856.552	3655
861.844	3623
867.13	3603
872.41	3590
877.686	3586
882.955	3552
888.219	3508
893.478	3456
898.731	3422
903.979	3390
909.221	3337
914.458	3349
919.69	3323
924.916	3349
930.136	3332
935.351	3328
940.561	3374
945.766	3329
950.965	3341
956.158	3313
961.347	3290
966.529	3225
971.707	3205
976.879	3134
982.046	3117
987.208	3079
992.364	3090
997.515	3107
1002.66	3147
1007.801	3189
1012.936	3210
1018.066	3204
1023.19	3208
1028.309	3216
1033.423	3202
1038.532	3161
1043.636	3150
1048.734	3127
1053.827	3080
1058.915	3054
1063.998	3013
1069.075	3032
1074.147	3022
1079.214	3005
1084.276	3018
1089.333	3053
1094.385	3065
1099.431	3052
1104.472	3036
1109.509	3044
1114.54	2986
1119.565	2960
1124.586	2917
1129.602	2879
1134.613	2858
1139.618	2826
1144.619	2837
1149.614	2817
1154.604	2848
1159.589	2841
1164.57	2875
1169.545	2860
1174.515	2842
1179.48	2833
1184.44	2827
1189.395	2799
1194.345	2810
1199.29	2769
1204.23	2747
1209.165	2761
1214.095	2788
1219.021	2796
1223.941	2802
1228.856	2816
1233.766	2843
1238.672	2842
1243.572	2833
1248.467	2830
1253.358	2792
1258.244	2766
1263.124	2693
1268	2646
1272.871	2620
1277.737	2607
1282.599	2568
1287.455	2588
1292.306	2596
1297.153	2611
1301.995	2632
1306.832	2654
1311.664	2663
1316.491	2638
1321.314	2632
1326.132	2632
1330.945	2603
1335.753	2565
1340.556	2516
1345.354	2486
1350.148	2472
1354.937	2430
1359.722	2379
1364.501	2346
1369.276	2298
1374.046	2272
1378.811	2236
1383.572	2227
1388.327	2214
1393.079	2224
1397.825	2211
1402.567	2217
1407.304	2225
1412.036	2221
1416.764	2212
1421.487	2211
1426.205	2242
1430.919	2235
1435.628	2260
1440.333	2282
1445.032	2281
1449.727	2303
1454.418	2299
1459.104	2302
1463.785	2288
1468.462	2235
1473.134	2203
1477.802	2172
1482.465	2114
1487.123	2057
1491.777	2049
1496.426	2019
1501.071	2011
1505.711	2000
1510.347	1993
1514.978	2000
1519.604	2006
1524.226	1987
1528.844	1979
1533.457	1964
1538.065	1972
1542.669	1931
1547.269	1947
1551.864	1959
1556.454	1960
1561.041	1980
1565.622	1999
1570.199	1983
1574.772	2006
1579.34	2029
1583.904	2059
1588.464	2078
1593.019	2091
1597.569	2081
1602.115	2099
1606.657	2072
1611.195	2045
1615.728	2086
1620.256	2072
1624.78	2043
1629.3	2058
1633.816	2068
1638.327	2098
1642.834	2077
1647.336	2103
1651.834	2132
1656.328	2103
1660.817	2122
1665.302	2091
1669.783	2041
1674.259	1984
1678.732	1969
1683.199	1899
1687.663	1835
1692.122	1776
1696.577	1702
1701.028	1645
1705.474	1582
1709.917	1517
1714.355	1520
1718.788	1489
1723.218	1510
1727.643	1474
1732.064	1493
1736.481	1469
1740.893	1439
1745.301	1402
1749.705	1391
1754.105	1365
1758.501	1332
1762.893	1320
1767.28	1297
1771.663	1285
1776.042	1273
1780.417	1269
1784.787	1253
1789.154	1237
1793.516	1231
1797.874	1207
1802.228	1195
1806.578	1181
1810.924	1177
1815.266	1164
1819.603	1154
1823.937	1153
1828.266	1139
1832.591	1142
1836.913	1136
1841.23	1153
1845.543	1148
1849.852	1143
1854.156	1143
1858.457	1163
1862.754	1160
1867.047	1140
1871.335	1150
1875.62	1150
1879.9	1160
1884.177	1141
1888.449	1129
1892.718	1122
1896.982	1094
1901.243	1084
1905.499	1074
1909.752	1060
1914	1044
1918.245	1031
1922.485	1031
1926.722	1009
1930.954	1014
1935.183	1013
1939.408	1011
1943.628	987
1947.845	978
1952.058	981
1956.267	973
1960.472	967
1964.673	961
1968.87	950
1973.063	947
1977.252	924
1981.438	930
1985.619	940
1989.797	918
1993.971	933
1998.14	951
2002.306	944
2006.469	951
2010.627	938
2014.781	955
2018.932	936
2023.078	937
2027.221	933
2031.36	923
2035.495	908
2039.627	900
2043.754	884
2047.878	869
2051.998	868
2056.114	869
2060.226	880
2064.334	862
2068.439	862
2072.54	853
2076.637	855
2080.73	848
2084.82	847
2088.906	858
2092.988	836
2097.066	839
2101.14	809
2105.211	808
2109.278	791
2113.342	788
2117.401	776
2121.457	774
2125.509	756
2129.558	754
2133.602	769
2137.643	776
2141.681	762
2145.714	768
2149.744	742
2153.77	754
2157.793	758
2161.812	760
2165.827	734
2169.838	737
2173.846	701
2177.851	707
2181.851	690
2185.848	694
2189.841	694
2193.831	697
2197.817	666
2201.799	663
2205.778	672
2209.753	662
2213.725	658
2217.693	664
2221.657	670
2225.618	675
2229.575	663
2233.529	643
2237.479	642
2241.425	642
2245.368	629
2249.307	625
2253.243	618
2257.175	604
2261.104	592
2265.029	594
2268.95	579
2272.868	570
2276.783	567
2280.694	550
2284.601	554
2288.505	548
2292.405	535
2296.302	531
2300.195	522
2304.085	516
2307.971	517
2311.854	517
2315.734	497
2319.609	482
2323.482	490
2327.351	485
2331.216	505
2335.078	501
2338.937	484
2342.792	464
2346.643	465
2350.492	460
2354.336	467
2358.178	469
2362.015	465
2365.85	475
2369.681	459
2373.508	478
2377.333	482
2381.153	464
2384.971	472
2388.785	466
2392.595	450
2396.402	460
2400.206	457
2404.007	455
2407.804	441
2411.597	455
2415.388	441
2419.174	446
2422.958	438
2426.738	444
2430.515	431
2434.289	443
2438.059	434
2441.825	426
2445.589	412
2449.349	409
2453.106	412
2456.859	403
2460.61	406
2464.356	390
2468.1	386
2471.84	380
2475.577	386
2479.311	377
2483.041	380
2486.768	371
2490.492	374
2494.213	377
2497.93	370
2501.644	358
2505.355	360
2509.062	357
2512.766	347
2516.467	350
2520.165	354
2523.859	330
2527.551	341
2531.239	331
2534.923	322
2538.605	321
2542.283	323
2545.958	312
2549.63	306
2553.299	300
2556.964	298
2560.626	311
2564.285	293
2567.941	302
2571.594	298
2575.243	284
2578.89	287
2582.533	281
2586.173	278
2589.809	263
2593.443	274
2597.073	268
2600.701	266
2604.325	255
2607.946	257
2611.564	256
2615.178	254
2618.79	257
2622.398	254
2626.004	257
2629.606	246
2633.205	246
2636.801	244
2640.394	240
2643.983	228
2647.57	242
2651.153	229
2654.734	242
2658.311	228
2661.885	218
2665.456	227
2669.025	231
2672.589	220
2676.151	224
2679.71	217
2683.266	216
2686.819	211
2690.368	206
2693.915	193
2697.458	192
2700.999	200
2704.536	192
2708.071	186
2711.602	187
2715.13	191
2718.656	171
2722.178	184
2725.697	174
2729.214	171
2732.727	174
2736.237	173
2739.744	166
2743.249	155
2746.75	156
2750.248	160
2753.743	146
2757.236	144
2760.725	150
2764.211	139
2767.695	143
2771.175	138
2774.652	135
2778.127	137
2781.598	126
2785.067	144
2788.532	130
2791.995	139
2795.455	143
2798.911	138
2802.365	141
2805.816	147
2809.264	142
2812.709	155
2816.151	137
2819.59	136
2823.026	139
2826.46	142
2829.89	142
2833.318	140
2836.742	144
2840.164	145
2843.583	152
2846.999	151
2850.412	154
2853.822	144
2857.229	156
2860.634	151
2864.035	160
2867.434	159
2870.83	163
2874.223	177
2877.613	176
2881	195
2884.385	194
2887.766	188
2891.145	188
2894.521	190
2897.894	197
2901.264	192
2904.631	201
2907.996	201
2911.358	204
2914.717	208
2918.073	219
2921.426	214
2924.777	210
2928.124	225
2931.469	226
2934.811	229
2938.15	241
2941.487	248
2944.821	245
2948.152	243
2951.48	251
2954.805	243
2958.128	244
2961.447	244
2964.765	236
2968.079	242
2971.39	239
2974.699	242
2978.005	240
2981.308	246
2984.609	258
2987.907	252
2991.202	250
2994.494	247
2997.784	252
3001.07	259
3004.355	270
3007.636	262
3010.915	267
3014.191	261
3017.464	277
3020.734	279
3024.002	278
3027.267	284
3030.53	296
3033.789	302
3037.046	304
3040.301	308
3043.552	334
3046.801	336
3050.048	343
3053.291	351
3056.532	356
3059.771	381
3063.006	395
3066.239	406
3069.469	416
3072.697	424
3075.922	440
3079.144	464
3082.364	464
3085.581	485
3088.795	479
3092.007	492
3095.216	495
3098.423	506
3101.627	535
3104.828	520
3108.026	548
3111.222	556
3114.416	562
3117.607	592
3120.795	613
3123.98	598
3127.163	611
3130.344	650
3133.521	641
3136.696	672
3139.869	681
3143.039	691
3146.206	698
3149.371	699
3152.533	717
3155.693	717
3158.85	734
3162.005	733
3165.157	730
3168.306	731
3171.453	738
3174.597	751
3177.739	757
3180.878	749
3184.014	773
3187.149	745
3190.28	775
3193.409	765
3196.536	764
3199.659	779
3202.781	779
3205.9	782
3209.016	787
3212.13	783
3215.241	770
3218.35	769
3221.456	764
3224.56	748
3227.661	737
3230.76	727
3233.856	715
3236.95	700
3240.041	705
3243.13	688
3246.216	695
3249.3	664
3252.382	668
3255.46	663
3258.537	663
3261.611	645
3264.682	641
3267.751	647
3270.818	640
3273.882	630
3276.943	622
3280.002	618
3283.059	618
3286.113	609
3289.165	607
3292.214	602
3295.261	590
3298.306	583
3301.348	573
3304.387	572
3307.425	571
3310.459	554
3313.492	552
3316.521	541
3319.549	541
3322.574	532
3325.597	542
3328.617	528
3331.635	526
3334.65	540
3337.663	514
3340.674	536
3343.682	528
3346.688	520
3349.691	519
3352.692	511
3355.691	525
3358.687	506
3361.681	515
3364.673	503
3367.662	490
3370.649	491
3373.633	468
3376.615	464
3379.595	454
3382.572	450
3385.547	451
3388.52	447
3391.49	432
3394.458	430
3397.424	420
3400.387	410
3403.348	403
3406.307	399
3409.263	402
3412.217	387
3415.168	383
3418.118	391
3421.065	371
3424.009	371
3426.951	364
3429.891	354
3432.829	347
3435.764	341
3438.697	334
3441.628	318
3444.557	313
3447.483	300
3450.407	284
3453.328	278
3456.247	276
3459.164	255
3462.079	247
3464.991	229
3467.902	224
3470.809	227
3473.715	196
3476.618	198
3479.519	187
3482.418	177
3485.315	161
3488.209	146
3491.101	154
3493.99	152
3496.878	139
3499.763	128
3502.646	125
3505.527	103
3508.405	116
3511.281	104
3514.155	98
3517.027	86
3519.897	84
3522.764	61
3525.629	53
3528.492	49
3531.352	47
3534.211	39
3537.067	33
3539.921	30
3542.773	19
3545.622	15
3548.469	5
3551.315	6
3554.157	-5
3556.998	-7
3559.837	-11
3562.673	-18
3565.507	-17
3568.339	-26
3571.169	-42
3573.996	-36
3576.822	-33
3579.645	-38
3582.466	-40
3585.285	-47
3588.101	-43
3590.916	-62
3593.728	-65
3596.538	-63
3599.346	-65
3602.152	-69
3604.956	-70
3607.757	-68
3610.556	-79
3613.354	-78
3616.149	-84
3618.942	-84
3621.732	-82
3624.521	-86
3627.307	-85
3630.092	-93
3632.874	-89
3635.654	-101
3638.432	-100
3641.208	-99
3643.982	-102
3646.753	-101
3649.523	-108
3652.29	-106
3655.055	-107
3657.818	-114
3660.579	-112
3663.338	-112
3666.095	-117
3668.849	-120
3671.602	-116
3674.352	-123
3677.101	-127
3679.847	-124
3682.591	-126
3685.333	-120
3688.073	-123
3690.811	-128
3693.547	-136
3696.281	-131
3699.013	-133
3701.742	-136
3704.47	-133
3707.195	-131
3709.919	-129
3712.64	-136
3715.359	-143
3718.076	-139
3720.792	-145
3723.505	-146
3726.216	-139
3728.925	-142
3731.632	-138
3734.336	-142
3737.039	-136
3739.74	-145
3742.439	-149
3745.136	-143
3747.83	-150
3750.523	-147
3753.213	-142
3755.902	-141
3758.589	-152
3761.273	-142
3763.956	-147
3766.636	-151
3769.315	-143
3771.991	-143
3774.665	-151
3777.338	-140
3780.008	-145
3782.677	-149
3785.343	-147
3788.007	-151
3790.67	-155
3793.33	-150
3795.989	-145
3798.645	-147
3801.299	-148
3803.952	-153
3806.602	-141
3809.251	-157
3811.897	-153
3814.542	-154
3817.184	-147
3819.825	-152
3822.463	-152
3825.1	-153
3827.735	-150
3830.367	-160
3832.998	-158
3835.627	-151
3838.253	-145
3840.878	-149
3843.501	-145
3846.122	-148
3848.741	-158
3851.358	-148
3853.973	-155
3856.586	-152
3859.197	-157
3861.806	-146
3864.414	-154
3867.019	-148
3869.622	-150
3872.224	-142
3874.823	-135
3877.421	-118
3880.016	-102
3882.61	-75
3885.202	-76
3887.792	-96
3890.38	-114
3892.966	-140
3895.55	-149
3898.132	-150
3900.713	-158
3903.291	-154
3905.868	-154
3908.442	-151
3911.015	-156
3913.586	-153
3916.155	-159
3918.722	-156
3921.287	-160
3923.85	-157
3926.411	-152
3928.971	-151
3931.528	-157
3934.084	-159
3936.638	-154
3939.19	-162
3941.74	-157
3944.288	-155
3946.834	-151
3949.378	-151
3951.921	-157
3954.462	-163
3957	-156
3959.537	-154
3962.072	-162
3964.606	-150
3967.137	-152
3969.667	-156
3972.194	-155
3974.72	-153
3977.244	-155
3979.766	-154
3982.286	-153
3984.805	-157
3987.321	-154
3989.836	-151
3992.349	-155
3994.86	-153
3997.369	-161
3999.877	-153
4002.382	-151
4004.886	-156
4007.388	-151
4009.888	-148
4012.386	-153
4014.883	-154
4017.377	-153
4019.87	-154
4022.361	-160
4024.85	-151
4027.338	-154
4029.823	-147
4032.307	-153
4034.789	-157
4037.269	-154
4039.747	-152
4042.224	-155
4044.699	-160
4047.172	-152
4049.643	-146
4052.112	-150
4054.58	-152
4057.046	-152
4059.51	-161
4061.972	-153
4064.432	-153
4066.891	-155
4069.348	-148
4071.803	-157
4074.256	-153
4076.708	-154
4079.158	-152
4081.606	-149
4084.052	-152
4086.497	-154
4088.939	-144
4091.38	-157
4093.819	-151
4096.257	-160
4098.693	-161
4101.127	-160
4103.559	-157
4105.989	2
4108.418	-4
4110.845	-7
4113.27	-4
4115.694	-11
4118.115	-8
4120.535	-155
4122.954	-159
4125.37	-151
4127.785	-154
4130.198	-155
4132.609	-156
4135.019	-161
4137.427	-159
4139.833	-161
4142.237	-161
