Data from 2018-2-8_conc=0_n=3_RamanShift_02.txt Node
Date: Mon Mar 12 13:24:59 IST 2018
User: aro
Spectrometer: QEPB0276
Trigger mode: 0
Integration Time (sec): 3.000000E1
Scans to average: 1
Electric dark correction enabled: true
Nonlinearity correction enabled: false
Boxcar width: 0
XAxis mode: Raman Shifts
Number of Pixels in Spectrum: 1044
>>>>>Begin Spectral Data<<<<<
160.701	28
166.742	54
172.777	119
178.805	353
184.826	948
190.841	2007
196.849	3303
202.85	4308
208.845	4700
214.833	4672
220.815	4622
226.789	4613
232.758	4619
238.719	4641
244.674	4606
250.623	4597
256.565	4513
262.5	4440
268.429	4403
274.351	4393
280.267	4353
286.176	4343
292.079	4326
297.975	4312
303.865	4322
309.748	4302
315.625	4273
321.495	4278
327.359	4285
333.217	4293
339.068	4341
344.912	4287
350.751	4309
356.583	4318
362.408	4315
368.227	4329
374.04	4345
379.847	4378
385.647	4391
391.44	4429
397.228	4439
403.009	4447
408.784	4470
414.553	4510
420.315	4513
426.071	4513
431.821	4520
437.565	4505
443.302	4486
449.033	4502
454.758	4466
460.477	4412
466.189	4437
471.896	4366
477.596	4355
483.29	4313
488.978	4345
494.66	4319
500.335	4270
506.005	4144
511.668	3966
517.325	3848
522.977	3722
528.622	3628
534.261	3611
539.894	3530
545.521	3503
551.141	3504
556.756	3446
562.365	3407
567.968	3426
573.565	3401
579.155	3382
584.74	3361
590.319	3356
595.892	3332
601.459	3325
607.02	3317
612.575	3305
618.124	3264
623.667	3240
629.204	3211
634.735	3181
640.261	3175
645.781	3143
651.294	3124
656.802	3139
662.304	3121
667.8	3112
673.29	3099
678.775	3075
684.254	3064
689.726	3073
695.193	3033
700.655	3038
706.11	3011
711.56	3021
717.004	2977
722.442	2958
727.874	2945
733.301	2949
738.722	2915
744.137	2927
749.547	2910
754.951	2929
760.349	2914
765.741	2919
771.128	2947
776.509	2969
781.885	2994
787.254	3009
792.618	3012
797.977	2970
803.33	2965
808.677	2951
814.019	2936
819.355	2904
824.686	2897
830.011	2840
835.33	2854
840.644	2829
845.952	2840
851.255	2819
856.552	2802
861.844	2807
867.13	2811
872.41	2779
877.686	2783
882.955	2802
888.219	2740
893.478	2702
898.731	2635
903.979	2610
909.221	2582
914.458	2582
919.69	2580
924.916	2558
930.136	2592
935.351	2596
940.561	2583
945.766	2568
950.965	2540
956.158	2548
961.347	2507
966.529	2475
971.707	2421
976.879	2402
982.046	2398
987.208	2372
992.364	2410
997.515	2387
1002.66	2429
1007.801	2440
1012.936	2443
1018.066	2430
1023.19	2461
1028.309	2475
1033.423	2466
1038.532	2471
1043.636	2412
1048.734	2431
1053.827	2404
1058.915	2372
1063.998	2353
1069.075	2329
1074.147	2338
1079.214	2334
1084.276	2333
1089.333	2361
1094.385	2379
1099.431	2356
1104.472	2363
1109.509	2343
1114.54	2317
1119.565	2288
1124.586	2284
1129.602	2232
1134.613	2193
1139.618	2179
1144.619	2212
1149.614	2187
1154.604	2195
1159.589	2192
1164.57	2197
1169.545	2209
1174.515	2225
1179.48	2197
1184.44	2171
1189.395	2164
1194.345	2158
1199.29	2131
1204.23	2131
1209.165	2136
1214.095	2147
1219.021	2153
1223.941	2168
1228.856	2195
1233.766	2183
1238.672	2179
1243.572	2176
1248.467	2185
1253.358	2139
1258.244	2106
1263.124	2069
1268	2025
1272.871	2025
1277.737	1999
1282.599	1997
1287.455	1987
1292.306	1998
1297.153	2000
1301.995	2010
1306.832	2014
1311.664	2041
1316.491	2047
1321.314	2024
1326.132	2030
1330.945	2005
1335.753	1957
1340.556	1955
1345.354	1903
1350.148	1865
1354.937	1835
1359.722	1818
1364.501	1785
1369.276	1743
1374.046	1729
1378.811	1699
1383.572	1692
1388.327	1695
1393.079	1704
1397.825	1703
1402.567	1704
1407.304	1712
1412.036	1696
1416.764	1717
1421.487	1712
1426.205	1701
1430.919	1731
1435.628	1729
1440.333	1753
1445.032	1756
1449.727	1760
1454.418	1777
1459.104	1790
1463.785	1746
1468.462	1730
1473.134	1686
1477.802	1663
1482.465	1605
1487.123	1567
1491.777	1561
1496.426	1555
1501.071	1519
1505.711	1513
1510.347	1512
1514.978	1514
1519.604	1516
1524.226	1512
1528.844	1509
1533.457	1480
1538.065	1486
1542.669	1477
1547.269	1476
1551.864	1470
1556.454	1484
1561.041	1512
1565.622	1502
1570.199	1507
1574.772	1534
1579.34	1535
1583.904	1570
1588.464	1581
1593.019	1583
1597.569	1584
1602.115	1572
1606.657	1585
1611.195	1575
1615.728	1570
1620.256	1562
1624.78	1574
1629.3	1559
1633.816	1546
1638.327	1568
1642.834	1577
1647.336	1585
1651.834	1578
1656.328	1578
1660.817	1587
1665.302	1580
1669.783	1522
1674.259	1491
1678.732	1459
1683.199	1427
1687.663	1388
1692.122	1339
1696.577	1282
1701.028	1228
1705.474	1184
1709.917	1147
1714.355	1119
1718.788	1114
1723.218	1104
1727.643	1119
1732.064	1127
1736.481	1108
1740.893	1078
1745.301	1061
1749.705	1057
1754.105	1025
1758.501	999
1762.893	988
1767.28	982
1771.663	973
1776.042	955
1780.417	943
1784.787	940
1789.154	930
1793.516	918
1797.874	907
1802.228	887
1806.578	879
1810.924	881
1815.266	871
1819.603	860
1823.937	869
1828.266	870
1832.591	864
1836.913	855
1841.23	859
1845.543	863
1849.852	861
1854.156	856
1858.457	866
1862.754	846
1867.047	868
1871.335	867
1875.62	860
1879.9	869
1884.177	852
1888.449	848
1892.718	831
1896.982	826
1901.243	804
1905.499	803
1909.752	784
1914	769
1918.245	774
1922.485	744
1926.722	752
1930.954	745
1935.183	743
1939.408	753
1943.628	739
1947.845	718
1952.058	712
1956.267	728
1960.472	714
1964.673	705
1968.87	704
1973.063	694
1977.252	679
1981.438	693
1985.619	687
1989.797	689
1993.971	687
1998.14	691
2002.306	695
2006.469	705
2010.627	707
2014.781	696
2018.932	700
2023.078	693
2027.221	698
2031.36	680
2035.495	676
2039.627	659
2043.754	642
2047.878	648
2051.998	642
2056.114	630
2060.226	624
2064.334	632
2068.439	632
2072.54	638
2076.637	639
2080.73	620
2084.82	618
2088.906	621
2092.988	618
2097.066	615
2101.14	606
2105.211	607
2109.278	589
2113.342	572
2117.401	568
2121.457	572
2125.509	559
2129.558	567
2133.602	565
2137.643	567
2141.681	562
2145.714	549
2149.744	563
2153.77	558
2157.793	552
2161.812	557
2165.827	553
2169.838	546
2173.846	531
2177.851	527
2181.851	517
2185.848	508
2189.841	501
2193.831	507
2197.817	492
2201.799	490
2205.778	499
2209.753	502
2213.725	506
2217.693	506
2221.657	496
2225.618	493
2229.575	489
2233.529	481
2237.479	490
2241.425	474
2245.368	464
2249.307	461
2253.243	449
2257.175	444
2261.104	439
2265.029	431
2268.95	432
2272.868	427
2276.783	422
2280.694	415
2284.601	414
2288.505	409
2292.405	399
2296.302	398
2300.195	399
2304.085	400
2307.971	380
2311.854	382
2315.734	365
2319.609	372
2323.482	369
2327.351	378
2331.216	379
2335.078	399
2338.937	371
2342.792	354
2346.643	347
2350.492	355
2354.336	347
2358.178	348
2362.015	348
2365.85	354
2369.681	351
2373.508	345
2377.333	360
2381.153	342
2384.971	354
2388.785	363
2392.595	345
2396.402	339
2400.206	339
2404.007	343
2407.804	344
2411.597	331
2415.388	321
2419.174	336
2422.958	313
2426.738	324
2430.515	333
2434.289	327
2438.059	319
2441.825	323
2445.589	322
2449.349	306
2453.106	298
2456.859	308
2460.61	303
2464.356	297
2468.1	290
2471.84	285
2475.577	291
2479.311	275
2483.041	273
2486.768	271
2490.492	270
2494.213	282
2497.93	279
2501.644	270
2505.355	257
2509.062	265
2512.766	265
2516.467	261
2520.165	251
2523.859	248
2527.551	246
2531.239	239
2534.923	241
2538.605	242
2542.283	228
2545.958	231
2549.63	234
2553.299	232
2556.964	230
2560.626	223
2564.285	211
2567.941	219
2571.594	213
2575.243	212
2578.89	205
2582.533	208
2586.173	196
2589.809	200
2593.443	202
2597.073	199
2600.701	187
2604.325	187
2607.946	190
2611.564	185
2615.178	187
2618.79	189
2622.398	180
2626.004	180
2629.606	181
2633.205	171
2636.801	179
2640.394	182
2643.983	179
2647.57	179
2651.153	175
2654.734	172
2658.311	162
2661.885	157
2665.456	163
2669.025	173
2672.589	157
2676.151	166
2679.71	152
2683.266	148
2686.819	157
2690.368	145
2693.915	137
2697.458	145
2700.999	144
2704.536	136
2708.071	132
2711.602	137
2715.13	131
2718.656	130
2722.178	124
2725.697	130
2729.214	128
2732.727	125
2736.237	123
2739.744	118
2743.249	113
2746.75	118
2750.248	117
2753.743	105
2757.236	107
2760.725	107
2764.211	95
2767.695	99
2771.175	90
2774.652	93
2778.127	89
2781.598	90
2785.067	94
2788.532	93
2791.995	100
2795.455	96
2798.911	100
2802.365	99
2805.816	104
2809.264	91
2812.709	99
2816.151	92
2819.59	104
2823.026	101
2826.46	95
2829.89	93
2833.318	92
2836.742	98
2840.164	102
2843.583	97
2846.999	103
2850.412	105
2853.822	102
2857.229	100
2860.634	102
2864.035	105
2867.434	113
2870.83	128
2874.223	134
2877.613	130
2881	138
2884.385	142
2887.766	131
2891.145	132
2894.521	144
2897.894	144
2901.264	148
2904.631	152
2907.996	148
2911.358	144
2914.717	136
2918.073	149
2921.426	148
2924.777	160
2928.124	164
2931.469	167
2934.811	166
2938.15	171
2941.487	178
2944.821	183
2948.152	183
2951.48	177
2954.805	173
2958.128	172
2961.447	166
2964.765	164
2968.079	171
2971.39	168
2974.699	173
2978.005	160
2981.308	162
2984.609	173
2987.907	180
2991.202	173
2994.494	159
2997.784	169
3001.07	171
3004.355	184
3007.636	185
3010.915	189
3014.191	182
3017.464	184
3020.734	186
3024.002	188
3027.267	196
3030.53	191
3033.789	205
3037.046	213
3040.301	206
3043.552	224
3046.801	219
3050.048	231
3053.291	241
3056.532	254
3059.771	259
3063.006	270
3066.239	279
3069.469	279
3072.697	296
3075.922	306
3079.144	309
3082.364	314
3085.581	334
3088.795	334
3092.007	335
3095.216	344
3098.423	354
3101.627	358
3104.828	372
3108.026	374
3111.222	376
3114.416	388
3117.607	402
3120.795	403
3123.98	422
3127.163	434
3130.344	446
3133.521	452
3136.696	463
3139.869	466
3143.039	472
3146.206	473
3149.371	488
3152.533	495
3155.693	507
3158.85	497
3162.005	513
3165.157	495
3168.306	500
3171.453	503
3174.597	519
3177.739	517
3180.878	521
3184.014	527
3187.149	524
3190.28	522
3193.409	523
3196.536	526
3199.659	533
3202.781	536
3205.9	540
3209.016	536
3212.13	531
3215.241	525
3218.35	524
3221.456	510
3224.56	517
3227.661	500
3230.76	501
3233.856	499
3236.95	478
3240.041	477
3243.13	462
3246.216	455
3249.3	446
3252.382	456
3255.46	451
3258.537	439
3261.611	439
3264.682	430
3267.751	430
3270.818	425
3273.882	426
3276.943	411
3280.002	407
3283.059	410
3286.113	412
3289.165	406
3292.214	402
3295.261	396
3298.306	387
3301.348	383
3304.387	367
3307.425	377
3310.459	370
3313.492	364
3316.521	350
3319.549	365
3322.574	355
3325.597	366
3328.617	361
3331.635	345
3334.65	346
3337.663	337
3340.674	348
3343.682	354
3346.688	338
3349.691	355
3352.692	342
3355.691	344
3358.687	341
3361.681	336
3364.673	335
3367.662	324
3370.649	325
3373.633	307
3376.615	311
3379.595	302
3382.572	309
3385.547	296
3388.52	296
3391.49	290
3394.458	292
3397.424	272
3400.387	268
3403.348	266
3406.307	252
3409.263	266
3412.217	251
3415.168	262
3418.118	251
3421.065	246
3424.009	243
3426.951	240
3429.891	230
3432.829	211
3435.764	219
3438.697	207
3441.628	202
3444.557	202
3447.483	180
3450.407	174
3453.328	171
3456.247	167
3459.164	149
3462.079	141
3464.991	142
3467.902	139
3470.809	147
3473.715	119
3476.618	113
3479.519	108
3482.418	108
3485.315	96
3488.209	85
3491.101	81
3493.99	93
3496.878	79
3499.763	66
3502.646	65
3505.527	56
3508.405	58
3511.281	46
3514.155	51
3517.027	42
3519.897	37
3522.764	27
3525.629	13
3528.492	11
3531.352	13
3534.211	0
3537.067	-7
3539.921	-2
3542.773	-3
3545.622	-13
3548.469	-18
3551.315	-20
3554.157	-24
3556.998	-29
3559.837	-38
3562.673	-35
3565.507	-33
3568.339	-40
3571.169	-52
3573.996	-41
3576.822	-48
3579.645	-51
3582.466	-48
3585.285	-55
3588.101	-50
3590.916	-67
3593.728	-67
3596.538	-62
3599.346	-64
3602.152	-72
3604.956	-72
3607.757	-72
3610.556	-69
3613.354	-70
3616.149	-81
3618.942	-83
3621.732	-87
3624.521	-87
3627.307	-81
3630.092	-90
3632.874	-85
3635.654	-88
3638.432	-83
3641.208	-91
3643.982	-93
3646.753	-93
3649.523	-101
3652.29	-93
3655.055	-94
3657.818	-99
3660.579	-98
3663.338	-96
3666.095	-112
3668.849	-103
3671.602	-110
3674.352	-113
3677.101	-108
3679.847	-111
3682.591	-113
3685.333	-106
3688.073	-108
3690.811	-111
3693.547	-118
3696.281	-117
3699.013	-115
3701.742	-120
3704.47	-112
3707.195	-108
3709.919	-118
3712.64	-118
3715.359	-119
3718.076	-118
3720.792	-123
3723.505	-122
3726.216	-117
3728.925	-121
3731.632	-123
3734.336	-129
3737.039	-124
3739.74	-122
3742.439	-132
3745.136	-120
3747.83	-125
3750.523	-125
3753.213	-127
3755.902	-121
3758.589	-130
3761.273	-126
3763.956	-127
3766.636	-126
3769.315	-122
3771.991	-119
3774.665	-128
3777.338	-120
3780.008	-124
3782.677	-128
3785.343	-126
3788.007	-132
3790.67	-127
3793.33	-125
3795.989	-125
3798.645	-125
3801.299	-123
3803.952	-132
3806.602	-127
3809.251	-134
3811.897	-134
3814.542	-131
3817.184	-122
3819.825	-126
3822.463	-127
3825.1	-128
3827.735	-132
3830.367	-135
3832.998	-133
3835.627	-129
3838.253	-124
3840.878	-131
3843.501	-129
3846.122	-131
3848.741	-135
3851.358	-126
3853.973	-132
3856.586	-128
3859.197	-133
3861.806	-123
3864.414	-128
3867.019	-119
3869.622	-128
3872.224	-115
3874.823	-101
3877.421	-82
3880.016	-57
3882.61	-24
3885.202	-18
3887.792	-47
3890.38	-75
3892.966	-112
3895.55	-125
3898.132	-121
3900.713	-126
3903.291	-128
3905.868	-124
3908.442	-125
3911.015	-133
3913.586	-134
3916.155	-136
3918.722	-133
3921.287	-131
3923.85	-130
3926.411	-131
3928.971	-126
3931.528	-136
3934.084	-132
3936.638	-130
3939.19	-131
3941.74	-134
3944.288	-130
3946.834	-126
3949.378	-130
3951.921	-131
3954.462	-140
3957	-136
3959.537	-127
3962.072	-128
3964.606	-125
3967.137	-129
3969.667	-133
3972.194	-136
3974.72	-129
3977.244	-135
3979.766	-135
3982.286	-131
3984.805	-134
3987.321	-126
3989.836	-122
3992.349	-132
3994.86	-130
3997.369	-128
3999.877	-133
4002.382	-125
4004.886	-131
4007.388	-128
4009.888	-127
4012.386	-133
4014.883	-131
4017.377	-136
4019.87	-129
4022.361	-133
4024.85	-127
4027.338	-130
4029.823	-130
4032.307	-130
4034.789	-137
4037.269	-134
4039.747	-129
4042.224	-128
4044.699	-128
4047.172	-127
4049.643	-129
4052.112	-126
4054.58	-130
4057.046	-134
4059.51	-129
4061.972	-127
4064.432	-128
4066.891	-130
4069.348	-126
4071.803	-132
4074.256	-132
4076.708	-131
4079.158	-127
4081.606	-125
4084.052	-129
4086.497	-127
4088.939	-122
4091.38	-131
4093.819	-128
4096.257	-139
4098.693	-136
4101.127	-140
4103.559	-133
4105.989	22
4108.418	21
4110.845	17
4113.27	20
4115.694	1
4118.115	0
4120.535	-134
4122.954	-132
4125.37	-128
4127.785	-127
4130.198	-130
4132.609	-123
4135.019	-135
4137.427	-138
4139.833	-141
4142.237	-140
