Data from 2018-2-8_conc=5_n=2_RamanShift_02.txt Node
Date: Mon Mar 12 15:54:28 IST 2018
User: aro
Spectrometer: QEPB0276
Trigger mode: 0
Integration Time (sec): 3.000000E1
Scans to average: 1
Electric dark correction enabled: true
Nonlinearity correction enabled: false
Boxcar width: 0
XAxis mode: Raman Shifts
Number of Pixels in Spectrum: 1044
>>>>>Begin Spectral Data<<<<<
160.701	27
166.742	51
172.777	116
178.805	325
184.826	854
190.841	1792
196.849	2951
202.85	3842
208.845	4188
214.833	4190
220.815	4183
226.789	4159
232.758	4164
238.719	4173
244.674	4137
250.623	4107
256.565	4061
262.5	3975
268.429	3964
274.351	3937
280.267	3913
286.176	3910
292.079	3899
297.975	3892
303.865	3901
309.748	3905
315.625	3872
321.495	3877
327.359	3861
333.217	3881
339.068	3901
344.912	3893
350.751	3902
356.583	3910
362.408	3902
368.227	3964
374.04	3930
379.847	3967
385.647	3995
391.44	4007
397.228	4031
403.009	4050
408.784	4066
414.553	4083
420.315	4096
426.071	4122
431.821	4079
437.565	4085
443.302	4062
449.033	4082
454.758	4057
460.477	4033
466.189	3987
471.896	3974
477.596	3970
483.29	3953
488.978	3914
494.66	3895
500.335	3833
506.005	3754
511.668	3578
517.325	3434
522.977	3316
528.622	3267
534.261	3171
539.894	3153
545.521	3118
551.141	3089
556.756	3073
562.365	3073
567.968	3045
573.565	3005
579.155	2972
584.74	2968
590.319	2960
595.892	2967
601.459	2956
607.02	2966
612.575	2935
618.124	2891
623.667	2854
629.204	2833
634.735	2800
640.261	2804
645.781	2752
651.294	2768
656.802	2763
662.304	2759
667.8	2734
673.29	2730
678.775	2737
684.254	2695
689.726	2711
695.193	2705
700.655	2677
706.11	2665
711.56	2660
717.004	2648
722.442	2627
727.874	2615
733.301	2597
738.722	2608
744.137	2588
749.547	2578
754.951	2571
760.349	2584
765.741	2595
771.128	2588
776.509	2633
781.885	2666
787.254	2648
792.618	2658
797.977	2646
803.33	2625
808.677	2615
814.019	2599
819.355	2558
824.686	2558
830.011	2537
835.33	2534
840.644	2507
845.952	2522
851.255	2488
856.552	2479
861.844	2498
867.13	2477
872.41	2429
877.686	2424
882.955	2409
888.219	2391
893.478	2356
898.731	2334
903.979	2294
909.221	2274
914.458	2270
919.69	2257
924.916	2256
930.136	2283
935.351	2280
940.561	2277
945.766	2250
950.965	2271
956.158	2242
961.347	2211
966.529	2181
971.707	2160
976.879	2128
982.046	2102
987.208	2107
992.364	2110
997.515	2114
1002.66	2136
1007.801	2138
1012.936	2178
1018.066	2186
1023.19	2166
1028.309	2173
1033.423	2176
1038.532	2186
1043.636	2148
1048.734	2118
1053.827	2094
1058.915	2082
1063.998	2083
1069.075	2057
1074.147	2065
1079.214	2065
1084.276	2078
1089.333	2076
1094.385	2087
1099.431	2085
1104.472	2064
1109.509	2076
1114.54	2037
1119.565	2032
1124.586	1978
1129.602	1955
1134.613	1934
1139.618	1934
1144.619	1935
1149.614	1929
1154.604	1930
1159.589	1953
1164.57	1956
1169.545	1958
1174.515	1949
1179.48	1940
1184.44	1919
1189.395	1906
1194.345	1885
1199.29	1873
1204.23	1892
1209.165	1889
1214.095	1898
1219.021	1919
1223.941	1905
1228.856	1910
1233.766	1926
1238.672	1928
1243.572	1939
1248.467	1923
1253.358	1889
1258.244	1866
1263.124	1856
1268	1774
1272.871	1772
1277.737	1762
1282.599	1759
1287.455	1756
1292.306	1765
1297.153	1761
1301.995	1783
1306.832	1779
1311.664	1797
1316.491	1804
1321.314	1788
1326.132	1801
1330.945	1761
1335.753	1719
1340.556	1734
1345.354	1691
1350.148	1658
1354.937	1677
1359.722	1612
1364.501	1586
1369.276	1579
1374.046	1543
1378.811	1521
1383.572	1525
1388.327	1507
1393.079	1507
1397.825	1506
1402.567	1508
1407.304	1513
1412.036	1517
1416.764	1517
1421.487	1521
1426.205	1515
1430.919	1526
1435.628	1530
1440.333	1555
1445.032	1568
1449.727	1569
1454.418	1592
1459.104	1590
1463.785	1553
1468.462	1553
1473.134	1509
1477.802	1469
1482.465	1432
1487.123	1429
1491.777	1428
1496.426	1406
1501.071	1373
1505.711	1382
1510.347	1372
1514.978	1382
1519.604	1384
1524.226	1370
1528.844	1373
1533.457	1351
1538.065	1348
1542.669	1337
1547.269	1342
1551.864	1337
1556.454	1342
1561.041	1375
1565.622	1359
1570.199	1363
1574.772	1369
1579.34	1408
1583.904	1409
1588.464	1426
1593.019	1424
1597.569	1432
1602.115	1420
1606.657	1415
1611.195	1412
1615.728	1404
1620.256	1415
1624.78	1407
1629.3	1416
1633.816	1413
1638.327	1420
1642.834	1423
1647.336	1424
1651.834	1447
1656.328	1421
1660.817	1451
1665.302	1423
1669.783	1395
1674.259	1376
1678.732	1338
1683.199	1311
1687.663	1270
1692.122	1245
1696.577	1190
1701.028	1143
1705.474	1099
1709.917	1072
1714.355	1054
1718.788	1043
1723.218	1040
1727.643	1036
1732.064	1024
1736.481	1040
1740.893	992
1745.301	973
1749.705	958
1754.105	936
1758.501	908
1762.893	916
1767.28	909
1771.663	917
1776.042	899
1780.417	885
1784.787	868
1789.154	852
1793.516	873
1797.874	853
1802.228	851
1806.578	832
1810.924	809
1815.266	801
1819.603	803
1823.937	798
1828.266	803
1832.591	808
1836.913	791
1841.23	804
1845.543	802
1849.852	801
1854.156	801
1858.457	806
1862.754	823
1867.047	802
1871.335	813
1875.62	801
1879.9	803
1884.177	809
1888.449	791
1892.718	779
1896.982	778
1901.243	776
1905.499	751
1909.752	755
1914	736
1918.245	731
1922.485	723
1926.722	723
1930.954	710
1935.183	704
1939.408	713
1943.628	714
1947.845	691
1952.058	694
1956.267	679
1960.472	686
1964.673	681
1968.87	675
1973.063	658
1977.252	652
1981.438	658
1985.619	648
1989.797	656
1993.971	643
1998.14	665
2002.306	651
2006.469	663
2010.627	653
2014.781	664
2018.932	646
2023.078	655
2027.221	655
2031.36	644
2035.495	638
2039.627	630
2043.754	603
2047.878	615
2051.998	608
2056.114	600
2060.226	611
2064.334	609
2068.439	602
2072.54	598
2076.637	599
2080.73	590
2084.82	605
2088.906	578
2092.988	594
2097.066	586
2101.14	571
2105.211	562
2109.278	552
2113.342	538
2117.401	546
2121.457	540
2125.509	538
2129.558	534
2133.602	536
2137.643	525
2141.681	514
2145.714	527
2149.744	536
2153.77	517
2157.793	528
2161.812	521
2165.827	510
2169.838	515
2173.846	503
2177.851	477
2181.851	482
2185.848	478
2189.841	478
2193.831	476
2197.817	475
2201.799	475
2205.778	467
2209.753	465
2213.725	464
2217.693	457
2221.657	465
2225.618	458
2229.575	465
2233.529	451
2237.479	457
2241.425	447
2245.368	445
2249.307	427
2253.243	415
2257.175	419
2261.104	404
2265.029	405
2268.95	406
2272.868	392
2276.783	393
2280.694	384
2284.601	370
2288.505	384
2292.405	380
2296.302	373
2300.195	369
2304.085	361
2307.971	345
2311.854	355
2315.734	337
2319.609	334
2323.482	335
2327.351	340
2331.216	352
2335.078	358
2338.937	350
2342.792	324
2346.643	324
2350.492	321
2354.336	322
2358.178	323
2362.015	321
2365.85	338
2369.681	327
2373.508	317
2377.333	329
2381.153	330
2384.971	337
2388.785	324
2392.595	323
2396.402	304
2400.206	319
2404.007	306
2407.804	305
2411.597	304
2415.388	304
2419.174	293
2422.958	303
2426.738	312
2430.515	294
2434.289	299
2438.059	285
2441.825	292
2445.589	291
2449.349	271
2453.106	289
2456.859	291
2460.61	281
2464.356	263
2468.1	260
2471.84	262
2475.577	265
2479.311	264
2483.041	252
2486.768	260
2490.492	258
2494.213	260
2497.93	247
2501.644	243
2505.355	240
2509.062	246
2512.766	248
2516.467	236
2520.165	238
2523.859	230
2527.551	239
2531.239	224
2534.923	219
2538.605	219
2542.283	217
2545.958	222
2549.63	220
2553.299	213
2556.964	216
2560.626	207
2564.285	203
2567.941	203
2571.594	199
2575.243	207
2578.89	197
2582.533	187
2586.173	191
2589.809	185
2593.443	192
2597.073	176
2600.701	182
2604.325	171
2607.946	179
2611.564	183
2615.178	180
2618.79	177
2622.398	183
2626.004	170
2629.606	167
2633.205	171
2636.801	167
2640.394	169
2643.983	163
2647.57	167
2651.153	166
2654.734	168
2658.311	149
2661.885	155
2665.456	153
2669.025	155
2672.589	144
2676.151	149
2679.71	144
2683.266	146
2686.819	146
2690.368	139
2693.915	132
2697.458	131
2700.999	134
2704.536	122
2708.071	117
2711.602	128
2715.13	131
2718.656	123
2722.178	118
2725.697	113
2729.214	102
2732.727	112
2736.237	111
2739.744	110
2743.249	117
2746.75	108
2750.248	106
2753.743	101
2757.236	102
2760.725	101
2764.211	100
2767.695	89
2771.175	89
2774.652	84
2778.127	93
2781.598	85
2785.067	97
2788.532	84
2791.995	88
2795.455	92
2798.911	87
2802.365	99
2805.816	99
2809.264	91
2812.709	94
2816.151	92
2819.59	97
2823.026	93
2826.46	86
2829.89	93
2833.318	95
2836.742	101
2840.164	95
2843.583	91
2846.999	96
2850.412	93
2853.822	95
2857.229	102
2860.634	106
2864.035	104
2867.434	106
2870.83	117
2874.223	109
2877.613	122
2881	127
2884.385	125
2887.766	125
2891.145	120
2894.521	125
2897.894	129
2901.264	123
2904.631	127
2907.996	124
2911.358	119
2914.717	128
2918.073	124
2921.426	131
2924.777	135
2928.124	137
2931.469	143
2934.811	147
2938.15	150
2941.487	152
2944.821	150
2948.152	158
2951.48	156
2954.805	166
2958.128	160
2961.447	148
2964.765	151
2968.079	141
2971.39	148
2974.699	150
2978.005	148
2981.308	159
2984.609	151
2987.907	156
2991.202	153
2994.494	165
2997.784	158
3001.07	168
3004.355	162
3007.636	167
3010.915	166
3014.191	171
3017.464	170
3020.734	171
3024.002	171
3027.267	174
3030.53	182
3033.789	187
3037.046	208
3040.301	186
3043.552	208
3046.801	204
3050.048	214
3053.291	209
3056.532	232
3059.771	242
3063.006	248
3066.239	261
3069.469	257
3072.697	262
3075.922	276
3079.144	285
3082.364	296
3085.581	301
3088.795	298
3092.007	308
3095.216	314
3098.423	319
3101.627	328
3104.828	345
3108.026	347
3111.222	361
3114.416	363
3117.607	378
3120.795	382
3123.98	382
3127.163	397
3130.344	413
3133.521	416
3136.696	425
3139.869	428
3143.039	437
3146.206	450
3149.371	447
3152.533	465
3155.693	464
3158.85	477
3162.005	470
3165.157	472
3168.306	470
3171.453	469
3174.597	475
3177.739	475
3180.878	487
3184.014	500
3187.149	488
3190.28	490
3193.409	480
3196.536	486
3199.659	496
3202.781	496
3205.9	494
3209.016	497
3212.13	504
3215.241	486
3218.35	481
3221.456	468
3224.56	473
3227.661	470
3230.76	470
3233.856	455
3236.95	442
3240.041	455
3243.13	434
3246.216	426
3249.3	411
3252.382	419
3255.46	423
3258.537	419
3261.611	403
3264.682	403
3267.751	395
3270.818	389
3273.882	386
3276.943	395
3280.002	387
3283.059	386
3286.113	381
3289.165	377
3292.214	381
3295.261	371
3298.306	360
3301.348	358
3304.387	350
3307.425	346
3310.459	343
3313.492	337
3316.521	340
3319.549	329
3322.574	329
3325.597	322
3328.617	329
3331.635	322
3334.65	317
3337.663	314
3340.674	327
3343.682	329
3346.688	320
3349.691	320
3352.692	310
3355.691	308
3358.687	309
3361.681	314
3364.673	310
3367.662	297
3370.649	296
3373.633	292
3376.615	282
3379.595	282
3382.572	276
3385.547	278
3388.52	266
3391.49	262
3394.458	258
3397.424	254
3400.387	245
3403.348	252
3406.307	236
3409.263	231
3412.217	229
3415.168	232
3418.118	239
3421.065	221
3424.009	218
3426.951	220
3429.891	212
3432.829	197
3435.764	186
3438.697	200
3441.628	190
3444.557	178
3447.483	169
3450.407	159
3453.328	162
3456.247	154
3459.164	139
3462.079	133
3464.991	132
3467.902	120
3470.809	125
3473.715	115
3476.618	108
3479.519	103
3482.418	100
3485.315	86
3488.209	87
3491.101	79
3493.99	88
3496.878	77
3499.763	69
3502.646	66
3505.527	59
3508.405	48
3511.281	43
3514.155	49
3517.027	43
3519.897	32
3522.764	26
3525.629	23
3528.492	15
3531.352	16
3534.211	2
3537.067	4
3539.921	2
3542.773	-3
3545.622	-10
3548.469	-17
3551.315	-17
3554.157	-17
3556.998	-25
3559.837	-26
3562.673	-25
3565.507	-27
3568.339	-34
3571.169	-50
3573.996	-39
3576.822	-46
3579.645	-41
3582.466	-42
3585.285	-50
3588.101	-40
3590.916	-58
3593.728	-64
3596.538	-59
3599.346	-61
3602.152	-59
3604.956	-61
3607.757	-56
3610.556	-69
3613.354	-65
3616.149	-76
3618.942	-79
3621.732	-76
3624.521	-73
3627.307	-73
3630.092	-83
3632.874	-76
3635.654	-82
3638.432	-86
3641.208	-81
3643.982	-85
3646.753	-90
3649.523	-89
3652.29	-88
3655.055	-87
3657.818	-94
3660.579	-91
3663.338	-101
3666.095	-96
3668.849	-99
3671.602	-100
3674.352	-102
3677.101	-106
3679.847	-104
3682.591	-105
3685.333	-101
3688.073	-101
3690.811	-103
3693.547	-111
3696.281	-110
3699.013	-111
3701.742	-111
3704.47	-110
3707.195	-108
3709.919	-106
3712.64	-109
3715.359	-116
3718.076	-113
3720.792	-117
3723.505	-118
3726.216	-108
3728.925	-116
3731.632	-111
3734.336	-115
3737.039	-112
3739.74	-116
3742.439	-122
3745.136	-115
3747.83	-121
3750.523	-120
3753.213	-123
3755.902	-114
3758.589	-125
3761.273	-115
3763.956	-114
3766.636	-119
3769.315	-112
3771.991	-116
3774.665	-119
3777.338	-112
3780.008	-111
3782.677	-118
3785.343	-117
3788.007	-123
3790.67	-123
3793.33	-118
3795.989	-123
3798.645	-116
3801.299	-121
3803.952	-127
3806.602	-113
3809.251	-130
3811.897	-126
3814.542	-126
3817.184	-115
3819.825	-120
3822.463	-118
3825.1	-122
3827.735	-124
3830.367	-122
3832.998	-128
3835.627	-122
3838.253	-114
3840.878	-117
3843.501	-115
3846.122	-122
3848.741	-130
3851.358	-127
3853.973	-131
3856.586	-123
3859.197	-128
3861.806	-120
3864.414	-121
3867.019	-114
3869.622	-121
3872.224	-110
3874.823	-98
3877.421	-86
3880.016	-60
3882.61	-33
3885.202	-33
3887.792	-51
3890.38	-79
3892.966	-108
3895.55	-117
3898.132	-119
3900.713	-116
3903.291	-121
3905.868	-126
3908.442	-122
3911.015	-128
3913.586	-128
3916.155	-130
3918.722	-123
3921.287	-121
3923.85	-121
3926.411	-125
3928.971	-120
3931.528	-125
3934.084	-125
3936.638	-124
3939.19	-127
3941.74	-128
3944.288	-125
3946.834	-123
3949.378	-119
3951.921	-129
3954.462	-133
3957	-129
3959.537	-119
3962.072	-124
3964.606	-118
3967.137	-122
3969.667	-129
3972.194	-125
3974.72	-121
3977.244	-129
3979.766	-124
3982.286	-119
3984.805	-127
3987.321	-123
3989.836	-116
3992.349	-124
3994.86	-125
3997.369	-131
3999.877	-123
4002.382	-123
4004.886	-125
4007.388	-122
4009.888	-118
4012.386	-126
4014.883	-126
4017.377	-127
4019.87	-120
4022.361	-123
4024.85	-122
4027.338	-121
4029.823	-118
4032.307	-125
4034.789	-130
4037.269	-124
4039.747	-117
4042.224	-120
4044.699	-122
4047.172	-120
4049.643	-116
4052.112	-122
4054.58	-126
4057.046	-125
4059.51	-122
4061.972	-121
4064.432	-126
4066.891	-123
4069.348	-122
4071.803	-129
4074.256	-127
4076.708	-118
4079.158	-117
4081.606	-116
4084.052	-124
4086.497	-119
4088.939	-119
4091.38	-121
4093.819	-127
4096.257	-128
4098.693	-125
4101.127	-128
4103.559	-128
4105.989	35
4108.418	31
4110.845	28
4113.27	20
4115.694	10
4118.115	11
4120.535	-126
4122.954	-127
4125.37	-118
4127.785	-119
4130.198	-125
4132.609	-124
4135.019	-132
4137.427	-130
4139.833	-128
4142.237	-129
