Data from 2018-2-8_conc=3_n=1_RamanShift_02.txt Node
Date: Mon Mar 12 14:28:58 IST 2018
User: aro
Spectrometer: QEPB0276
Trigger mode: 0
Integration Time (sec): 3.000000E1
Scans to average: 1
Electric dark correction enabled: true
Nonlinearity correction enabled: false
Boxcar width: 0
XAxis mode: Raman Shifts
Number of Pixels in Spectrum: 1044
>>>>>Begin Spectral Data<<<<<
160.701	21
166.742	55
172.777	127
178.805	384
184.826	1036
190.841	2202
196.849	3682
202.85	4801
208.845	5239
214.833	5246
220.815	5154
226.789	5137
232.758	5153
238.719	5131
244.674	5099
250.623	5040
256.565	4950
262.5	4893
268.429	4863
274.351	4794
280.267	4759
286.176	4727
292.079	4733
297.975	4682
303.865	4653
309.748	4643
315.625	4633
321.495	4645
327.359	4613
333.217	4656
339.068	4681
344.912	4661
350.751	4666
356.583	4627
362.408	4691
368.227	4694
374.04	4676
379.847	4712
385.647	4727
391.44	4762
397.228	4780
403.009	4801
408.784	4825
414.553	4824
420.315	4858
426.071	4854
431.821	4850
437.565	4865
443.302	4839
449.033	4819
454.758	4788
460.477	4764
466.189	4777
471.896	4710
477.596	4694
483.29	4670
488.978	4680
494.66	4631
500.335	4563
506.005	4460
511.668	4326
517.325	4201
522.977	4054
528.622	3998
534.261	3926
539.894	3866
545.521	3817
551.141	3810
556.756	3782
562.365	3725
567.968	3739
573.565	3722
579.155	3712
584.74	3676
590.319	3639
595.892	3658
601.459	3633
607.02	3618
612.575	3590
618.124	3575
623.667	3505
629.204	3488
634.735	3471
640.261	3427
645.781	3433
651.294	3437
656.802	3403
662.304	3403
667.8	3393
673.29	3379
678.775	3362
684.254	3376
689.726	3332
695.193	3327
700.655	3323
706.11	3314
711.56	3273
717.004	3233
722.442	3227
727.874	3210
733.301	3222
738.722	3201
744.137	3189
749.547	3185
754.951	3176
760.349	3180
765.741	3189
771.128	3216
776.509	3216
781.885	3242
787.254	3268
792.618	3263
797.977	3231
803.33	3236
808.677	3209
814.019	3186
819.355	3142
824.686	3143
830.011	3133
835.33	3120
840.644	3126
845.952	3106
851.255	3078
856.552	3063
861.844	3049
867.13	3043
872.41	3031
877.686	2991
882.955	2965
888.219	2932
893.478	2917
898.731	2869
903.979	2823
909.221	2827
914.458	2795
919.69	2807
924.916	2794
930.136	2817
935.351	2823
940.561	2807
945.766	2818
950.965	2802
956.158	2771
961.347	2759
966.529	2725
971.707	2667
976.879	2638
982.046	2621
987.208	2581
992.364	2618
997.515	2632
1002.66	2629
1007.801	2660
1012.936	2687
1018.066	2662
1023.19	2679
1028.309	2679
1033.423	2685
1038.532	2664
1043.636	2662
1048.734	2614
1053.827	2603
1058.915	2551
1063.998	2529
1069.075	2546
1074.147	2536
1079.214	2535
1084.276	2532
1089.333	2555
1094.385	2556
1099.431	2585
1104.472	2578
1109.509	2561
1114.54	2514
1119.565	2492
1124.586	2459
1129.602	2398
1134.613	2399
1139.618	2369
1144.619	2405
1149.614	2358
1154.604	2386
1159.589	2393
1164.57	2412
1169.545	2413
1174.515	2406
1179.48	2398
1184.44	2369
1189.395	2359
1194.345	2317
1199.29	2337
1204.23	2314
1209.165	2319
1214.095	2335
1219.021	2343
1223.941	2358
1228.856	2367
1233.766	2370
1238.672	2396
1243.572	2383
1248.467	2374
1253.358	2336
1258.244	2275
1263.124	2265
1268	2227
1272.871	2224
1277.737	2170
1282.599	2172
1287.455	2164
1292.306	2165
1297.153	2189
1301.995	2216
1306.832	2226
1311.664	2220
1316.491	2227
1321.314	2219
1326.132	2204
1330.945	2186
1335.753	2129
1340.556	2109
1345.354	2069
1350.148	2040
1354.937	2017
1359.722	1970
1364.501	1941
1369.276	1910
1374.046	1901
1378.811	1862
1383.572	1859
1388.327	1821
1393.079	1851
1397.825	1856
1402.567	1848
1407.304	1852
1412.036	1862
1416.764	1846
1421.487	1868
1426.205	1870
1430.919	1862
1435.628	1900
1440.333	1910
1445.032	1904
1449.727	1918
1454.418	1923
1459.104	1924
1463.785	1917
1468.462	1891
1473.134	1830
1477.802	1801
1482.465	1757
1487.123	1718
1491.777	1705
1496.426	1675
1501.071	1671
1505.711	1670
1510.347	1654
1514.978	1668
1519.604	1657
1524.226	1651
1528.844	1651
1533.457	1634
1538.065	1622
1542.669	1627
1547.269	1621
1551.864	1621
1556.454	1643
1561.041	1651
1565.622	1669
1570.199	1662
1574.772	1687
1579.34	1708
1583.904	1724
1588.464	1750
1593.019	1747
1597.569	1757
1602.115	1740
1606.657	1729
1611.195	1729
1615.728	1727
1620.256	1732
1624.78	1725
1629.3	1725
1633.816	1734
1638.327	1752
1642.834	1738
1647.336	1755
1651.834	1753
1656.328	1763
1660.817	1750
1665.302	1742
1669.783	1703
1674.259	1664
1678.732	1624
1683.199	1596
1687.663	1534
1692.122	1489
1696.577	1433
1701.028	1366
1705.474	1319
1709.917	1278
1714.355	1227
1718.788	1236
1723.218	1234
1727.643	1238
1732.064	1248
1736.481	1225
1740.893	1196
1745.301	1165
1749.705	1139
1754.105	1122
1758.501	1108
1762.893	1091
1767.28	1081
1771.663	1077
1776.042	1063
1780.417	1051
1784.787	1019
1789.154	1035
1793.516	1022
1797.874	1010
1802.228	987
1806.578	991
1810.924	967
1815.266	951
1819.603	939
1823.937	959
1828.266	956
1832.591	957
1836.913	962
1841.23	956
1845.543	946
1849.852	945
1854.156	949
1858.457	951
1862.754	949
1867.047	942
1871.335	949
1875.62	951
1879.9	949
1884.177	959
1888.449	931
1892.718	922
1896.982	910
1901.243	906
1905.499	888
1909.752	878
1914	857
1918.245	867
1922.485	832
1926.722	849
1930.954	841
1935.183	826
1939.408	839
1943.628	827
1947.845	824
1952.058	798
1956.267	798
1960.472	784
1964.673	789
1968.87	785
1973.063	784
1977.252	772
1981.438	774
1985.619	774
1989.797	768
1993.971	766
1998.14	793
2002.306	773
2006.469	792
2010.627	786
2014.781	776
2018.932	780
2023.078	777
2027.221	769
2031.36	758
2035.495	740
2039.627	753
2043.754	730
2047.878	720
2051.998	719
2056.114	708
2060.226	722
2064.334	715
2068.439	707
2072.54	701
2076.637	704
2080.73	702
2084.82	696
2088.906	695
2092.988	686
2097.066	693
2101.14	673
2105.211	660
2109.278	654
2113.342	651
2117.401	640
2121.457	631
2125.509	642
2129.558	627
2133.602	630
2137.643	634
2141.681	628
2145.714	623
2149.744	622
2153.77	620
2157.793	610
2161.812	626
2165.827	604
2169.838	587
2173.846	593
2177.851	584
2181.851	581
2185.848	570
2189.841	576
2193.831	563
2197.817	553
2201.799	549
2205.778	555
2209.753	557
2213.725	547
2217.693	542
2221.657	552
2225.618	553
2229.575	549
2233.529	550
2237.479	540
2241.425	525
2245.368	503
2249.307	499
2253.243	498
2257.175	488
2261.104	491
2265.029	476
2268.95	478
2272.868	462
2276.783	454
2280.694	466
2284.601	448
2288.505	449
2292.405	443
2296.302	448
2300.195	443
2304.085	416
2307.971	420
2311.854	418
2315.734	407
2319.609	402
2323.482	392
2327.351	393
2331.216	406
2335.078	417
2338.937	397
2342.792	386
2346.643	387
2350.492	382
2354.336	382
2358.178	375
2362.015	388
2365.85	395
2369.681	376
2373.508	389
2377.333	393
2381.153	383
2384.971	386
2388.785	399
2392.595	366
2396.402	363
2400.206	379
2404.007	371
2407.804	376
2411.597	362
2415.388	355
2419.174	359
2422.958	355
2426.738	362
2430.515	352
2434.289	349
2438.059	347
2441.825	335
2445.589	348
2449.349	327
2453.106	323
2456.859	319
2460.61	337
2464.356	321
2468.1	315
2471.84	298
2475.577	313
2479.311	305
2483.041	296
2486.768	298
2490.492	296
2494.213	303
2497.93	290
2501.644	296
2505.355	285
2509.062	283
2512.766	290
2516.467	275
2520.165	269
2523.859	284
2527.551	271
2531.239	263
2534.923	260
2538.605	265
2542.283	242
2545.958	253
2549.63	244
2553.299	245
2556.964	246
2560.626	238
2564.285	237
2567.941	233
2571.594	227
2575.243	226
2578.89	230
2582.533	215
2586.173	217
2589.809	208
2593.443	225
2597.073	213
2600.701	218
2604.325	195
2607.946	199
2611.564	202
2615.178	211
2618.79	202
2622.398	211
2626.004	205
2629.606	202
2633.205	192
2636.801	193
2640.394	194
2643.983	190
2647.57	183
2651.153	187
2654.734	188
2658.311	178
2661.885	174
2665.456	189
2669.025	183
2672.589	175
2676.151	168
2679.71	175
2683.266	165
2686.819	166
2690.368	168
2693.915	155
2697.458	153
2700.999	156
2704.536	147
2708.071	146
2711.602	146
2715.13	146
2718.656	139
2722.178	134
2725.697	138
2729.214	121
2732.727	129
2736.237	122
2739.744	127
2743.249	128
2746.75	125
2750.248	120
2753.743	113
2757.236	113
2760.725	117
2764.211	115
2767.695	105
2771.175	111
2774.652	103
2778.127	100
2781.598	96
2785.067	104
2788.532	106
2791.995	103
2795.455	107
2798.911	101
2802.365	113
2805.816	104
2809.264	114
2812.709	106
2816.151	110
2819.59	112
2823.026	108
2826.46	103
2829.89	107
2833.318	105
2836.742	112
2840.164	102
2843.583	114
2846.999	108
2850.412	108
2853.822	113
2857.229	103
2860.634	117
2864.035	117
2867.434	118
2870.83	134
2874.223	148
2877.613	140
2881	151
2884.385	144
2887.766	143
2891.145	144
2894.521	146
2897.894	158
2901.264	143
2904.631	147
2907.996	144
2911.358	155
2914.717	157
2918.073	160
2921.426	180
2924.777	187
2928.124	171
2931.469	171
2934.811	182
2938.15	191
2941.487	196
2944.821	187
2948.152	193
2951.48	199
2954.805	204
2958.128	193
2961.447	183
2964.765	189
2968.079	185
2971.39	189
2974.699	201
2978.005	196
2981.308	195
2984.609	191
2987.907	191
2991.202	203
2994.494	203
2997.784	206
3001.07	220
3004.355	221
3007.636	218
3010.915	217
3014.191	224
3017.464	217
3020.734	222
3024.002	229
3027.267	226
3030.53	244
3033.789	248
3037.046	252
3040.301	265
3043.552	272
3046.801	270
3050.048	284
3053.291	287
3056.532	299
3059.771	313
3063.006	324
3066.239	338
3069.469	346
3072.697	357
3075.922	362
3079.144	366
3082.364	383
3085.581	400
3088.795	389
3092.007	399
3095.216	421
3098.423	421
3101.627	438
3104.828	444
3108.026	452
3111.222	464
3114.416	486
3117.607	476
3120.795	492
3123.98	497
3127.163	518
3130.344	532
3133.521	540
3136.696	562
3139.869	570
3143.039	566
3146.206	565
3149.371	587
3152.533	593
3155.693	604
3158.85	609
3162.005	616
3165.157	609
3168.306	623
3171.453	602
3174.597	623
3177.739	627
3180.878	638
3184.014	616
3187.149	637
3190.28	640
3193.409	636
3196.536	639
3199.659	638
3202.781	650
3205.9	648
3209.016	665
3212.13	659
3215.241	650
3218.35	634
3221.456	624
3224.56	617
3227.661	616
3230.76	614
3233.856	599
3236.95	594
3240.041	596
3243.13	577
3246.216	567
3249.3	552
3252.382	565
3255.46	558
3258.537	549
3261.611	541
3264.682	524
3267.751	531
3270.818	533
3273.882	530
3276.943	513
3280.002	523
3283.059	514
3286.113	529
3289.165	512
3292.214	500
3295.261	489
3298.306	489
3301.348	476
3304.387	475
3307.425	472
3310.459	475
3313.492	463
3316.521	463
3319.549	448
3322.574	448
3325.597	450
3328.617	449
3331.635	442
3334.65	427
3337.663	428
3340.674	437
3343.682	437
3346.688	426
3349.691	440
3352.692	420
3355.691	424
3358.687	421
3361.681	421
3364.673	421
3367.662	426
3370.649	404
3373.633	392
3376.615	391
3379.595	380
3382.572	388
3385.547	372
3388.52	371
3391.49	365
3394.458	364
3397.424	349
3400.387	337
3403.348	345
3406.307	328
3409.263	324
3412.217	325
3415.168	324
3418.118	323
3421.065	314
3424.009	307
3426.951	295
3429.891	298
3432.829	278
3435.764	279
3438.697	272
3441.628	268
3444.557	256
3447.483	249
3450.407	218
3453.328	225
3456.247	216
3459.164	192
3462.079	194
3464.991	188
3467.902	181
3470.809	178
3473.715	163
3476.618	150
3479.519	147
3482.418	139
3485.315	129
3488.209	134
3491.101	120
3493.99	125
3496.878	116
3499.763	107
3502.646	94
3505.527	87
3508.405	96
3511.281	79
3514.155	72
3517.027	61
3519.897	58
3522.764	46
3525.629	27
3528.492	35
3531.352	30
3534.211	22
3537.067	16
3539.921	16
3542.773	2
3545.622	-6
3548.469	-7
3551.315	-5
3554.157	-13
3556.998	-18
3559.837	-21
3562.673	-21
3565.507	-33
3568.339	-34
3571.169	-43
3573.996	-41
3576.822	-39
3579.645	-40
3582.466	-37
3585.285	-57
3588.101	-39
3590.916	-60
3593.728	-69
3596.538	-57
3599.346	-67
3602.152	-58
3604.956	-67
3607.757	-72
3610.556	-75
3613.354	-72
3616.149	-85
3618.942	-84
3621.732	-89
3624.521	-86
3627.307	-84
3630.092	-87
3632.874	-88
3635.654	-95
3638.432	-89
3641.208	-94
3643.982	-101
3646.753	-100
3649.523	-101
3652.29	-96
3655.055	-100
3657.818	-108
3660.579	-101
3663.338	-104
3666.095	-110
3668.849	-111
3671.602	-112
3674.352	-115
3677.101	-115
3679.847	-118
3682.591	-121
3685.333	-117
3688.073	-112
3690.811	-117
3693.547	-123
3696.281	-123
3699.013	-117
3701.742	-125
3704.47	-125
3707.195	-121
3709.919	-130
3712.64	-125
3715.359	-126
3718.076	-127
3720.792	-127
3723.505	-131
3726.216	-127
3728.925	-128
3731.632	-125
3734.336	-138
3737.039	-128
3739.74	-135
3742.439	-140
3745.136	-138
3747.83	-138
3750.523	-132
3753.213	-135
3755.902	-132
3758.589	-137
3761.273	-131
3763.956	-134
3766.636	-141
3769.315	-133
3771.991	-132
3774.665	-136
3777.338	-127
3780.008	-128
3782.677	-136
3785.343	-138
3788.007	-144
3790.67	-141
3793.33	-135
3795.989	-130
3798.645	-129
3801.299	-131
3803.952	-142
3806.602	-132
3809.251	-147
3811.897	-148
3814.542	-143
3817.184	-130
3819.825	-128
3822.463	-137
3825.1	-141
3827.735	-140
3830.367	-139
3832.998	-146
3835.627	-141
3838.253	-139
3840.878	-139
3843.501	-136
3846.122	-143
3848.741	-142
3851.358	-140
3853.973	-145
3856.586	-141
3859.197	-148
3861.806	-138
3864.414	-133
3867.019	-134
3869.622	-136
3872.224	-125
3874.823	-119
3877.421	-97
3880.016	-71
3882.61	-42
3885.202	-35
3887.792	-55
3890.38	-95
3892.966	-122
3895.55	-130
3898.132	-144
3900.713	-139
3903.291	-140
3905.868	-139
3908.442	-134
3911.015	-144
3913.586	-141
3916.155	-150
3918.722	-144
3921.287	-141
3923.85	-142
3926.411	-146
3928.971	-139
3931.528	-142
3934.084	-138
3936.638	-137
3939.19	-146
3941.74	-145
3944.288	-137
3946.834	-136
3949.378	-137
3951.921	-138
3954.462	-149
3957	-147
3959.537	-142
3962.072	-148
3964.606	-139
3967.137	-143
3969.667	-139
3972.194	-144
3974.72	-139
3977.244	-146
3979.766	-139
3982.286	-143
3984.805	-146
3987.321	-139
3989.836	-137
3992.349	-142
3994.86	-143
3997.369	-141
3999.877	-140
4002.382	-139
4004.886	-146
4007.388	-142
4009.888	-132
4012.386	-140
4014.883	-139
4017.377	-141
4019.87	-138
4022.361	-143
4024.85	-143
4027.338	-147
4029.823	-137
4032.307	-137
4034.789	-145
4037.269	-143
4039.747	-141
4042.224	-142
4044.699	-147
4047.172	-139
4049.643	-137
4052.112	-140
4054.58	-140
4057.046	-144
4059.51	-142
4061.972	-142
4064.432	-144
4066.891	-143
4069.348	-139
4071.803	-148
4074.256	-140
4076.708	-138
4079.158	-139
4081.606	-136
4084.052	-140
4086.497	-143
4088.939	-136
4091.38	-140
4093.819	-139
4096.257	-150
4098.693	-147
4101.127	-147
4103.559	-148
4105.989	11
4108.418	11
4110.845	10
4113.27	5
4115.694	-3
4118.115	1
4120.535	-144
4122.954	-140
4125.37	-138
4127.785	-144
4130.198	-137
4132.609	-141
4135.019	-148
4137.427	-148
4139.833	-147
4142.237	-144
