Data from 2018-2-8_conc=5_n=9_RamanShift_02.txt Node
Date: Mon Mar 12 16:17:58 IST 2018
User: aro
Spectrometer: QEPB0276
Trigger mode: 0
Integration Time (sec): 3.000000E1
Scans to average: 1
Electric dark correction enabled: true
Nonlinearity correction enabled: false
Boxcar width: 0
XAxis mode: Raman Shifts
Number of Pixels in Spectrum: 1044
>>>>>Begin Spectral Data<<<<<
160.701	16
166.742	46
172.777	118
178.805	349
184.826	941
190.841	2016
196.849	3338
202.85	4389
208.845	4796
214.833	4803
220.815	4729
226.789	4736
232.758	4726
238.719	4743
244.674	4694
250.623	4653
256.565	4638
262.5	4563
268.429	4528
274.351	4489
280.267	4459
286.176	4451
292.079	4417
297.975	4399
303.865	4395
309.748	4387
315.625	4367
321.495	4357
327.359	4371
333.217	4395
339.068	4348
344.912	4397
350.751	4399
356.583	4420
362.408	4405
368.227	4415
374.04	4435
379.847	4427
385.647	4476
391.44	4469
397.228	4523
403.009	4542
408.784	4574
414.553	4564
420.315	4576
426.071	4587
431.821	4586
437.565	4603
443.302	4568
449.033	4575
454.758	4515
460.477	4542
466.189	4475
471.896	4449
477.596	4436
483.29	4396
488.978	4424
494.66	4389
500.335	4335
506.005	4218
511.668	4087
517.325	3943
522.977	3829
528.622	3753
534.261	3685
539.894	3641
545.521	3595
551.141	3581
556.756	3540
562.365	3525
567.968	3497
573.565	3489
579.155	3449
584.74	3428
590.319	3426
595.892	3451
601.459	3427
607.02	3431
612.575	3375
618.124	3371
623.667	3329
629.204	3295
634.735	3236
640.261	3230
645.781	3195
651.294	3210
656.802	3213
662.304	3197
667.8	3190
673.29	3198
678.775	3161
684.254	3150
689.726	3153
695.193	3118
700.655	3134
706.11	3103
711.56	3080
717.004	3066
722.442	3032
727.874	3054
733.301	3027
738.722	3002
744.137	3011
749.547	2987
754.951	3009
760.349	2975
765.741	2993
771.128	3021
776.509	3035
781.885	3072
787.254	3083
792.618	3074
797.977	3046
803.33	3049
808.677	2994
814.019	3009
819.355	2970
824.686	2920
830.011	2918
835.33	2919
840.644	2934
845.952	2909
851.255	2896
856.552	2895
861.844	2844
867.13	2871
872.41	2826
877.686	2820
882.955	2784
888.219	2777
893.478	2753
898.731	2692
903.979	2666
909.221	2639
914.458	2632
919.69	2635
924.916	2643
930.136	2639
935.351	2636
940.561	2658
945.766	2641
950.965	2622
956.158	2613
961.347	2572
966.529	2535
971.707	2508
976.879	2473
982.046	2463
987.208	2447
992.364	2443
997.515	2437
1002.66	2481
1007.801	2495
1012.936	2509
1018.066	2519
1023.19	2496
1028.309	2523
1033.423	2517
1038.532	2508
1043.636	2490
1048.734	2443
1053.827	2446
1058.915	2389
1063.998	2386
1069.075	2387
1074.147	2387
1079.214	2383
1084.276	2399
1089.333	2403
1094.385	2419
1099.431	2411
1104.472	2402
1109.509	2386
1114.54	2353
1119.565	2329
1124.586	2302
1129.602	2282
1134.613	2259
1139.618	2241
1144.619	2239
1149.614	2235
1154.604	2255
1159.589	2239
1164.57	2254
1169.545	2271
1174.515	2273
1179.48	2252
1184.44	2236
1189.395	2226
1194.345	2214
1199.29	2173
1204.23	2170
1209.165	2194
1214.095	2179
1219.021	2209
1223.941	2210
1228.856	2228
1233.766	2247
1238.672	2227
1243.572	2216
1248.467	2206
1253.358	2215
1258.244	2151
1263.124	2111
1268	2079
1272.871	2060
1277.737	2034
1282.599	2041
1287.455	2039
1292.306	2050
1297.153	2047
1301.995	2059
1306.832	2060
1311.664	2081
1316.491	2081
1321.314	2088
1326.132	2061
1330.945	2034
1335.753	2013
1340.556	1978
1345.354	1963
1350.148	1917
1354.937	1916
1359.722	1892
1364.501	1858
1369.276	1813
1374.046	1786
1378.811	1770
1383.572	1754
1388.327	1770
1393.079	1762
1397.825	1766
1402.567	1734
1407.304	1744
1412.036	1743
1416.764	1762
1421.487	1750
1426.205	1769
1430.919	1757
1435.628	1769
1440.333	1773
1445.032	1800
1449.727	1823
1454.418	1813
1459.104	1816
1463.785	1798
1468.462	1788
1473.134	1755
1477.802	1698
1482.465	1648
1487.123	1635
1491.777	1625
1496.426	1605
1501.071	1591
1505.711	1591
1510.347	1593
1514.978	1592
1519.604	1591
1524.226	1575
1528.844	1554
1533.457	1547
1538.065	1548
1542.669	1544
1547.269	1544
1551.864	1525
1556.454	1568
1561.041	1577
1565.622	1581
1570.199	1557
1574.772	1588
1579.34	1598
1583.904	1624
1588.464	1645
1593.019	1640
1597.569	1637
1602.115	1637
1606.657	1635
1611.195	1625
1615.728	1610
1620.256	1612
1624.78	1622
1629.3	1619
1633.816	1621
1638.327	1628
1642.834	1651
1647.336	1637
1651.834	1653
1656.328	1653
1660.817	1657
1665.302	1653
1669.783	1613
1674.259	1586
1678.732	1537
1683.199	1496
1687.663	1469
1692.122	1404
1696.577	1358
1701.028	1295
1705.474	1263
1709.917	1228
1714.355	1209
1718.788	1196
1723.218	1201
1727.643	1187
1732.064	1182
1736.481	1157
1740.893	1149
1745.301	1126
1749.705	1111
1754.105	1089
1758.501	1075
1762.893	1048
1767.28	1038
1771.663	1041
1776.042	1033
1780.417	1007
1784.787	1005
1789.154	994
1793.516	996
1797.874	969
1802.228	956
1806.578	937
1810.924	937
1815.266	934
1819.603	919
1823.937	930
1828.266	927
1832.591	921
1836.913	917
1841.23	914
1845.543	910
1849.852	915
1854.156	916
1858.457	917
1862.754	918
1867.047	920
1871.335	932
1875.62	920
1879.9	926
1884.177	920
1888.449	903
1892.718	904
1896.982	877
1901.243	881
1905.499	867
1909.752	844
1914	836
1918.245	857
1922.485	834
1926.722	829
1930.954	812
1935.183	828
1939.408	819
1943.628	801
1947.845	807
1952.058	806
1956.267	785
1960.472	784
1964.673	766
1968.87	770
1973.063	752
1977.252	741
1981.438	757
1985.619	739
1989.797	758
1993.971	752
1998.14	750
2002.306	761
2006.469	765
2010.627	750
2014.781	751
2018.932	743
2023.078	753
2027.221	732
2031.36	735
2035.495	733
2039.627	714
2043.754	700
2047.878	702
2051.998	687
2056.114	696
2060.226	699
2064.334	675
2068.439	690
2072.54	680
2076.637	686
2080.73	667
2084.82	676
2088.906	676
2092.988	662
2097.066	675
2101.14	648
2105.211	635
2109.278	639
2113.342	632
2117.401	625
2121.457	617
2125.509	607
2129.558	608
2133.602	613
2137.643	608
2141.681	597
2145.714	602
2149.744	612
2153.77	611
2157.793	600
2161.812	585
2165.827	581
2169.838	584
2173.846	560
2177.851	570
2181.851	545
2185.848	543
2189.841	562
2193.831	533
2197.817	542
2201.799	538
2205.778	531
2209.753	529
2213.725	528
2217.693	531
2221.657	519
2225.618	527
2229.575	524
2233.529	508
2237.479	514
2241.425	498
2245.368	503
2249.307	476
2253.243	491
2257.175	483
2261.104	473
2265.029	459
2268.95	459
2272.868	452
2276.783	449
2280.694	431
2284.601	438
2288.505	428
2292.405	431
2296.302	419
2300.195	427
2304.085	412
2307.971	389
2311.854	402
2315.734	396
2319.609	382
2323.482	379
2327.351	395
2331.216	401
2335.078	404
2338.937	387
2342.792	360
2346.643	368
2350.492	361
2354.336	366
2358.178	370
2362.015	373
2365.85	373
2369.681	373
2373.508	371
2377.333	372
2381.153	375
2384.971	365
2388.785	372
2392.595	357
2396.402	352
2400.206	353
2404.007	350
2407.804	360
2411.597	348
2415.388	340
2419.174	346
2422.958	347
2426.738	342
2430.515	339
2434.289	343
2438.059	337
2441.825	327
2445.589	340
2449.349	321
2453.106	325
2456.859	320
2460.61	315
2464.356	302
2468.1	310
2471.84	298
2475.577	304
2479.311	290
2483.041	280
2486.768	297
2490.492	296
2494.213	300
2497.93	292
2501.644	287
2505.355	278
2509.062	278
2512.766	277
2516.467	273
2520.165	272
2523.859	268
2527.551	263
2531.239	252
2534.923	254
2538.605	245
2542.283	246
2545.958	250
2549.63	252
2553.299	246
2556.964	250
2560.626	247
2564.285	230
2567.941	230
2571.594	230
2575.243	234
2578.89	227
2582.533	228
2586.173	226
2589.809	215
2593.443	211
2597.073	206
2600.701	204
2604.325	195
2607.946	205
2611.564	199
2615.178	201
2618.79	198
2622.398	198
2626.004	192
2629.606	197
2633.205	193
2636.801	190
2640.394	185
2643.983	193
2647.57	187
2651.153	193
2654.734	185
2658.311	171
2661.885	172
2665.456	177
2669.025	180
2672.589	166
2676.151	174
2679.71	172
2683.266	162
2686.819	163
2690.368	166
2693.915	152
2697.458	156
2700.999	151
2704.536	148
2708.071	144
2711.602	148
2715.13	143
2718.656	139
2722.178	130
2725.697	136
2729.214	130
2732.727	135
2736.237	136
2739.744	124
2743.249	125
2746.75	128
2750.248	121
2753.743	120
2757.236	118
2760.725	115
2764.211	111
2767.695	107
2771.175	99
2774.652	103
2778.127	102
2781.598	99
2785.067	112
2788.532	111
2791.995	111
2795.455	104
2798.911	106
2802.365	106
2805.816	109
2809.264	102
2812.709	116
2816.151	111
2819.59	114
2823.026	113
2826.46	109
2829.89	107
2833.318	111
2836.742	104
2840.164	104
2843.583	108
2846.999	114
2850.412	107
2853.822	107
2857.229	112
2860.634	119
2864.035	124
2867.434	122
2870.83	125
2874.223	141
2877.613	139
2881	143
2884.385	151
2887.766	136
2891.145	137
2894.521	147
2897.894	146
2901.264	148
2904.631	148
2907.996	156
2911.358	141
2914.717	153
2918.073	147
2921.426	161
2924.777	163
2928.124	165
2931.469	164
2934.811	169
2938.15	171
2941.487	177
2944.821	184
2948.152	182
2951.48	181
2954.805	180
2958.128	181
2961.447	173
2964.765	177
2968.079	173
2971.39	175
2974.699	178
2978.005	175
2981.308	189
2984.609	190
2987.907	182
2991.202	187
2994.494	188
2997.784	189
3001.07	196
3004.355	204
3007.636	200
3010.915	196
3014.191	194
3017.464	206
3020.734	205
3024.002	209
3027.267	213
3030.53	213
3033.789	223
3037.046	229
3040.301	227
3043.552	244
3046.801	250
3050.048	255
3053.291	256
3056.532	278
3059.771	284
3063.006	287
3066.239	294
3069.469	302
3072.697	313
3075.922	312
3079.144	338
3082.364	349
3085.581	355
3088.795	366
3092.007	365
3095.216	381
3098.423	377
3101.627	401
3104.828	412
3108.026	403
3111.222	411
3114.416	438
3117.607	435
3120.795	442
3123.98	444
3127.163	461
3130.344	479
3133.521	492
3136.696	505
3139.869	499
3143.039	514
3146.206	512
3149.371	527
3152.533	541
3155.693	545
3158.85	553
3162.005	559
3165.157	556
3168.306	554
3171.453	555
3174.597	558
3177.739	571
3180.878	561
3184.014	571
3187.149	564
3190.28	571
3193.409	563
3196.536	567
3199.659	574
3202.781	575
3205.9	590
3209.016	586
3212.13	585
3215.241	567
3218.35	572
3221.456	552
3224.56	568
3227.661	553
3230.76	548
3233.856	532
3236.95	528
3240.041	520
3243.13	512
3246.216	499
3249.3	485
3252.382	498
3255.46	496
3258.537	487
3261.611	483
3264.682	480
3267.751	480
3270.818	470
3273.882	467
3276.943	457
3280.002	458
3283.059	459
3286.113	458
3289.165	448
3292.214	451
3295.261	437
3298.306	439
3301.348	428
3304.387	429
3307.425	421
3310.459	414
3313.492	412
3316.521	399
3319.549	404
3322.574	396
3325.597	394
3328.617	389
3331.635	389
3334.65	400
3337.663	375
3340.674	390
3343.682	382
3346.688	382
3349.691	384
3352.692	384
3355.691	383
3358.687	372
3361.681	370
3364.673	369
3367.662	354
3370.649	361
3373.633	352
3376.615	339
3379.595	346
3382.572	343
3385.547	324
3388.52	330
3391.49	322
3394.458	315
3397.424	303
3400.387	303
3403.348	297
3406.307	283
3409.263	286
3412.217	283
3415.168	293
3418.118	279
3421.065	271
3424.009	270
3426.951	276
3429.891	257
3432.829	253
3435.764	246
3438.697	234
3441.628	227
3444.557	229
3447.483	209
3450.407	201
3453.328	192
3456.247	195
3459.164	181
3462.079	178
3464.991	168
3467.902	164
3470.809	159
3473.715	149
3476.618	138
3479.519	136
3482.418	127
3485.315	114
3488.209	110
3491.101	110
3493.99	109
3496.878	96
3499.763	90
3502.646	87
3505.527	82
3508.405	78
3511.281	66
3514.155	68
3517.027	63
3519.897	49
3522.764	46
3525.629	38
3528.492	32
3531.352	23
3534.211	22
3537.067	24
3539.921	12
3542.773	8
3545.622	-3
3548.469	-5
3551.315	1
3554.157	-6
3556.998	-14
3559.837	-15
3562.673	-22
3565.507	-27
3568.339	-29
3571.169	-37
3573.996	-36
3576.822	-30
3579.645	-35
3582.466	-38
3585.285	-42
3588.101	-44
3590.916	-50
3593.728	-58
3596.538	-53
3599.346	-59
3602.152	-53
3604.956	-59
3607.757	-61
3610.556	-62
3613.354	-69
3616.149	-78
3618.942	-76
3621.732	-72
3624.521	-73
3627.307	-77
3630.092	-80
3632.874	-82
3635.654	-82
3638.432	-80
3641.208	-88
3643.982	-88
3646.753	-93
3649.523	-91
3652.29	-90
3655.055	-84
3657.818	-92
3660.579	-90
3663.338	-92
3666.095	-100
3668.849	-98
3671.602	-103
3674.352	-107
3677.101	-103
3679.847	-106
3682.591	-101
3685.333	-102
3688.073	-105
3690.811	-110
3693.547	-116
3696.281	-108
3699.013	-108
3701.742	-113
3704.47	-109
3707.195	-110
3709.919	-116
3712.64	-114
3715.359	-117
3718.076	-117
3720.792	-112
3723.505	-119
3726.216	-111
3728.925	-120
3731.632	-114
3734.336	-123
3737.039	-118
3739.74	-116
3742.439	-129
3745.136	-115
3747.83	-125
3750.523	-127
3753.213	-127
3755.902	-123
3758.589	-127
3761.273	-119
3763.956	-121
3766.636	-119
3769.315	-116
3771.991	-119
3774.665	-126
3777.338	-120
3780.008	-119
3782.677	-127
3785.343	-123
3788.007	-122
3790.67	-128
3793.33	-121
3795.989	-126
3798.645	-115
3801.299	-122
3803.952	-128
3806.602	-117
3809.251	-126
3811.897	-128
3814.542	-127
3817.184	-122
3819.825	-127
3822.463	-123
3825.1	-118
3827.735	-123
3830.367	-126
3832.998	-129
3835.627	-122
3838.253	-127
3840.878	-125
3843.501	-121
3846.122	-123
3848.741	-130
3851.358	-123
3853.973	-125
3856.586	-126
3859.197	-128
3861.806	-123
3864.414	-127
3867.019	-119
3869.622	-121
3872.224	-112
3874.823	-109
3877.421	-94
3880.016	-73
3882.61	-52
3885.202	-56
3887.792	-68
3890.38	-88
3892.966	-117
3895.55	-120
3898.132	-125
3900.713	-126
3903.291	-126
3905.868	-128
3908.442	-121
3911.015	-126
3913.586	-128
3916.155	-130
3918.722	-128
3921.287	-129
3923.85	-131
3926.411	-130
3928.971	-128
3931.528	-131
3934.084	-123
3936.638	-123
3939.19	-126
3941.74	-128
3944.288	-132
3946.834	-130
3949.378	-124
3951.921	-128
3954.462	-132
3957	-127
3959.537	-123
3962.072	-133
3964.606	-123
3967.137	-127
3969.667	-131
3972.194	-132
3974.72	-124
3977.244	-126
3979.766	-124
3982.286	-125
3984.805	-128
3987.321	-129
3989.836	-118
3992.349	-128
3994.86	-126
3997.369	-131
3999.877	-129
4002.382	-121
4004.886	-131
4007.388	-125
4009.888	-123
4012.386	-126
4014.883	-131
4017.377	-130
4019.87	-126
4022.361	-129
4024.85	-128
4027.338	-123
4029.823	-128
4032.307	-126
4034.789	-133
4037.269	-125
4039.747	-120
4042.224	-124
4044.699	-128
4047.172	-127
4049.643	-124
4052.112	-128
4054.58	-126
4057.046	-126
4059.51	-125
4061.972	-128
4064.432	-126
4066.891	-127
4069.348	-125
4071.803	-134
4074.256	-122
4076.708	-123
4079.158	-127
4081.606	-116
4084.052	-128
4086.497	-127
4088.939	-123
4091.38	-125
4093.819	-126
4096.257	-132
4098.693	-132
4101.127	-129
4103.559	-126
4105.989	10
4108.418	7
4110.845	7
4113.27	4
4115.694	-4
4118.115	3
4120.535	-129
4122.954	-127
4125.37	-125
4127.785	-125
4130.198	-127
4132.609	-126
4135.019	-131
4137.427	-133
4139.833	-130
4142.237	-135
