Data from 2018-2-8_conc=4_n=7_RamanShift_06.txt Node
Date: Mon Mar 12 15:30:58 IST 2018
User: aro
Spectrometer: QEPB0276
Trigger mode: 0
Integration Time (sec): 3.000000E1
Scans to average: 1
Electric dark correction enabled: true
Nonlinearity correction enabled: false
Boxcar width: 0
XAxis mode: Raman Shifts
Number of Pixels in Spectrum: 1044
>>>>>Begin Spectral Data<<<<<
160.701	15
166.742	53
172.777	148
178.805	455
184.826	1243
190.841	2692
196.849	4472
202.85	5882
208.845	6446
214.833	6467
220.815	6332
226.789	6338
232.758	6349
238.719	6335
244.674	6282
250.623	6200
256.565	6136
262.5	6017
268.429	5945
274.351	5867
280.267	5817
286.176	5804
292.079	5768
297.975	5739
303.865	5697
309.748	5699
315.625	5711
321.495	5673
327.359	5649
333.217	5645
339.068	5670
344.912	5645
350.751	5666
356.583	5694
362.408	5687
368.227	5670
374.04	5660
379.847	5707
385.647	5740
391.44	5735
397.228	5780
403.009	5811
408.784	5842
414.553	5864
420.315	5861
426.071	5815
431.821	5871
437.565	5852
443.302	5806
449.033	5870
454.758	5809
460.477	5759
466.189	5777
471.896	5728
477.596	5687
483.29	5701
488.978	5678
494.66	5632
500.335	5571
506.005	5476
511.668	5324
517.325	5182
522.977	5091
528.622	4978
534.261	4916
539.894	4860
545.521	4816
551.141	4811
556.756	4770
562.365	4771
567.968	4723
573.565	4708
579.155	4672
584.74	4635
590.319	4653
595.892	4641
601.459	4618
607.02	4619
612.575	4582
618.124	4525
623.667	4496
629.204	4463
634.735	4431
640.261	4392
645.781	4365
651.294	4357
656.802	4354
662.304	4347
667.8	4335
673.29	4312
678.775	4311
684.254	4289
689.726	4284
695.193	4271
700.655	4262
706.11	4228
711.56	4183
717.004	4184
722.442	4142
727.874	4140
733.301	4122
738.722	4103
744.137	4100
749.547	4085
754.951	4057
760.349	4082
765.741	4094
771.128	4119
776.509	4109
781.885	4140
787.254	4124
792.618	4164
797.977	4120
803.33	4072
808.677	4057
814.019	4014
819.355	3992
824.686	3974
830.011	3956
835.33	3955
840.644	3965
845.952	3946
851.255	3936
856.552	3921
861.844	3910
867.13	3872
872.41	3872
877.686	3833
882.955	3837
888.219	3792
893.478	3759
898.731	3690
903.979	3646
909.221	3626
914.458	3598
919.69	3585
924.916	3602
930.136	3610
935.351	3618
940.561	3618
945.766	3591
950.965	3605
956.158	3582
961.347	3528
966.529	3491
971.707	3449
976.879	3399
982.046	3363
987.208	3349
992.364	3338
997.515	3347
1002.66	3397
1007.801	3407
1012.936	3451
1018.066	3446
1023.19	3458
1028.309	3458
1033.423	3468
1038.532	3424
1043.636	3395
1048.734	3376
1053.827	3323
1058.915	3291
1063.998	3248
1069.075	3257
1074.147	3260
1079.214	3260
1084.276	3250
1089.333	3274
1094.385	3312
1099.431	3328
1104.472	3311
1109.509	3258
1114.54	3224
1119.565	3195
1124.586	3138
1129.602	3112
1134.613	3091
1139.618	3066
1144.619	3086
1149.614	3061
1154.604	3090
1159.589	3064
1164.57	3082
1169.545	3091
1174.515	3110
1179.48	3077
1184.44	3064
1189.395	3019
1194.345	3002
1199.29	2976
1204.23	2994
1209.165	2998
1214.095	2991
1219.021	3032
1223.941	3034
1228.856	3060
1233.766	3067
1238.672	3053
1243.572	3065
1248.467	3044
1253.358	3020
1258.244	2929
1263.124	2908
1268	2876
1272.871	2841
1277.737	2800
1282.599	2797
1287.455	2805
1292.306	2796
1297.153	2813
1301.995	2825
1306.832	2823
1311.664	2881
1316.491	2851
1321.314	2853
1326.132	2830
1330.945	2788
1335.753	2750
1340.556	2730
1345.354	2674
1350.148	2664
1354.937	2605
1359.722	2555
1364.501	2495
1369.276	2486
1374.046	2419
1378.811	2405
1383.572	2367
1388.327	2373
1393.079	2366
1397.825	2366
1402.567	2390
1407.304	2400
1412.036	2405
1416.764	2382
1421.487	2416
1426.205	2398
1430.919	2421
1435.628	2428
1440.333	2461
1445.032	2472
1449.727	2521
1454.418	2489
1459.104	2502
1463.785	2454
1468.462	2420
1473.134	2391
1477.802	2325
1482.465	2289
1487.123	2224
1491.777	2189
1496.426	2189
1501.071	2168
1505.711	2155
1510.347	2153
1514.978	2136
1519.604	2121
1524.226	2127
1528.844	2113
1533.457	2123
1538.065	2095
1542.669	2089
1547.269	2087
1551.864	2074
1556.454	2114
1561.041	2119
1565.622	2153
1570.199	2134
1574.772	2162
1579.34	2192
1583.904	2230
1588.464	2234
1593.019	2252
1597.569	2244
1602.115	2241
1606.657	2260
1611.195	2242
1615.728	2224
1620.256	2204
1624.78	2212
1629.3	2219
1633.816	2227
1638.327	2252
1642.834	2244
1647.336	2264
1651.834	2269
1656.328	2265
1660.817	2258
1665.302	2226
1669.783	2184
1674.259	2155
1678.732	2103
1683.199	2044
1687.663	1981
1692.122	1917
1696.577	1842
1701.028	1745
1705.474	1681
1709.917	1644
1714.355	1608
1718.788	1583
1723.218	1592
1727.643	1601
1732.064	1591
1736.481	1578
1740.893	1542
1745.301	1500
1749.705	1498
1754.105	1446
1758.501	1430
1762.893	1412
1767.28	1388
1771.663	1364
1776.042	1350
1780.417	1361
1784.787	1324
1789.154	1303
1793.516	1301
1797.874	1277
1802.228	1259
1806.578	1233
1810.924	1241
1815.266	1227
1819.603	1236
1823.937	1229
1828.266	1227
1832.591	1233
1836.913	1224
1841.23	1217
1845.543	1236
1849.852	1219
1854.156	1214
1858.457	1243
1862.754	1257
1867.047	1217
1871.335	1244
1875.62	1219
1879.9	1230
1884.177	1204
1888.449	1208
1892.718	1184
1896.982	1171
1901.243	1151
1905.499	1146
1909.752	1128
1914	1117
1918.245	1100
1922.485	1090
1926.722	1082
1930.954	1079
1935.183	1064
1939.408	1057
1943.628	1062
1947.845	1048
1952.058	1032
1956.267	1030
1960.472	1018
1964.673	1007
1968.87	984
1973.063	990
1977.252	989
1981.438	994
1985.619	989
1989.797	989
1993.971	996
1998.14	1004
2002.306	1005
2006.469	1000
2010.627	1001
2014.781	1003
2018.932	993
2023.078	1014
2027.221	1005
2031.36	989
2035.495	971
2039.627	946
2043.754	930
2047.878	935
2051.998	934
2056.114	917
2060.226	928
2064.334	918
2068.439	924
2072.54	926
2076.637	908
2080.73	906
2084.82	893
2088.906	881
2092.988	888
2097.066	882
2101.14	869
2105.211	835
2109.278	834
2113.342	822
2117.401	810
2121.457	805
2125.509	816
2129.558	817
2133.602	826
2137.643	798
2141.681	809
2145.714	808
2149.744	792
2153.77	796
2157.793	803
2161.812	787
2165.827	783
2169.838	780
2173.846	763
2177.851	752
2181.851	752
2185.848	734
2189.841	736
2193.831	734
2197.817	726
2201.799	706
2205.778	725
2209.753	702
2213.725	705
2217.693	710
2221.657	712
2225.618	702
2229.575	703
2233.529	702
2237.479	701
2241.425	686
2245.368	664
2249.307	660
2253.243	662
2257.175	637
2261.104	638
2265.029	616
2268.95	620
2272.868	607
2276.783	592
2280.694	590
2284.601	589
2288.505	581
2292.405	579
2296.302	561
2300.195	567
2304.085	551
2307.971	548
2311.854	553
2315.734	529
2319.609	535
2323.482	526
2327.351	510
2331.216	530
2335.078	540
2338.937	522
2342.792	509
2346.643	502
2350.492	505
2354.336	512
2358.178	508
2362.015	511
2365.85	514
2369.681	507
2373.508	508
2377.333	496
2381.153	507
2384.971	505
2388.785	516
2392.595	489
2396.402	500
2400.206	494
2404.007	489
2407.804	492
2411.597	484
2415.388	467
2419.174	476
2422.958	466
2426.738	474
2430.515	457
2434.289	464
2438.059	465
2441.825	463
2445.589	446
2449.349	445
2453.106	444
2456.859	435
2460.61	431
2464.356	425
2468.1	427
2471.84	410
2475.577	415
2479.311	410
2483.041	405
2486.768	396
2490.492	400
2494.213	399
2497.93	404
2501.644	403
2505.355	394
2509.062	384
2512.766	389
2516.467	373
2520.165	372
2523.859	368
2527.551	374
2531.239	362
2534.923	349
2538.605	349
2542.283	336
2545.958	341
2549.63	343
2553.299	323
2556.964	345
2560.626	335
2564.285	327
2567.941	314
2571.594	312
2575.243	310
2578.89	316
2582.533	297
2586.173	294
2589.809	292
2593.443	295
2597.073	283
2600.701	282
2604.325	282
2607.946	289
2611.564	279
2615.178	296
2618.79	279
2622.398	279
2626.004	273
2629.606	260
2633.205	260
2636.801	255
2640.394	270
2643.983	260
2647.57	264
2651.153	260
2654.734	252
2658.311	252
2661.885	244
2665.456	255
2669.025	253
2672.589	242
2676.151	233
2679.71	224
2683.266	229
2686.819	226
2690.368	221
2693.915	220
2697.458	209
2700.999	213
2704.536	217
2708.071	207
2711.602	200
2715.13	209
2718.656	190
2722.178	189
2725.697	189
2729.214	183
2732.727	181
2736.237	195
2739.744	186
2743.249	179
2746.75	173
2750.248	159
2753.743	170
2757.236	163
2760.725	158
2764.211	157
2767.695	145
2771.175	137
2774.652	139
2778.127	148
2781.598	149
2785.067	150
2788.532	140
2791.995	149
2795.455	150
2798.911	154
2802.365	147
2805.816	157
2809.264	157
2812.709	153
2816.151	155
2819.59	155
2823.026	155
2826.46	156
2829.89	148
2833.318	151
2836.742	152
2840.164	151
2843.583	160
2846.999	171
2850.412	158
2853.822	165
2857.229	164
2860.634	165
2864.035	169
2867.434	178
2870.83	193
2874.223	196
2877.613	198
2881	207
2884.385	207
2887.766	202
2891.145	204
2894.521	203
2897.894	216
2901.264	217
2904.631	209
2907.996	211
2911.358	214
2914.717	212
2918.073	221
2921.426	229
2924.777	243
2928.124	250
2931.469	238
2934.811	255
2938.15	250
2941.487	265
2944.821	262
2948.152	262
2951.48	268
2954.805	274
2958.128	268
2961.447	254
2964.765	257
2968.079	249
2971.39	259
2974.699	263
2978.005	263
2981.308	272
2984.609	265
2987.907	256
2991.202	265
2994.494	270
2997.784	281
3001.07	279
3004.355	279
3007.636	293
3010.915	277
3014.191	291
3017.464	296
3020.734	298
3024.002	302
3027.267	307
3030.53	319
3033.789	333
3037.046	338
3040.301	329
3043.552	352
3046.801	352
3050.048	360
3053.291	370
3056.532	396
3059.771	417
3063.006	419
3066.239	437
3069.469	442
3072.697	471
3075.922	464
3079.144	485
3082.364	497
3085.581	509
3088.795	515
3092.007	532
3095.216	532
3098.423	548
3101.627	555
3104.828	566
3108.026	577
3111.222	585
3114.416	618
3117.607	644
3120.795	639
3123.98	635
3127.163	661
3130.344	701
3133.521	685
3136.696	717
3139.869	727
3143.039	746
3146.206	735
3149.371	757
3152.533	758
3155.693	779
3158.85	781
3162.005	780
3165.157	789
3168.306	777
3171.453	787
3174.597	786
3177.739	799
3180.878	805
3184.014	816
3187.149	804
3190.28	819
3193.409	805
3196.536	809
3199.659	822
3202.781	824
3205.9	833
3209.016	837
3212.13	835
3215.241	828
3218.35	804
3221.456	809
3224.56	796
3227.661	780
3230.76	775
3233.856	766
3236.95	750
3240.041	747
3243.13	730
3246.216	728
3249.3	708
3252.382	697
3255.46	697
3258.537	693
3261.611	692
3264.682	682
3267.751	678
3270.818	682
3273.882	653
3276.943	663
3280.002	664
3283.059	669
3286.113	659
3289.165	647
3292.214	645
3295.261	614
3298.306	623
3301.348	602
3304.387	602
3307.425	603
3310.459	592
3313.492	574
3316.521	583
3319.549	577
3322.574	577
3325.597	566
3328.617	574
3331.635	566
3334.65	579
3337.663	557
3340.674	557
3343.682	553
3346.688	551
3349.691	555
3352.692	549
3355.691	540
3358.687	547
3361.681	539
3364.673	539
3367.662	524
3370.649	516
3373.633	504
3376.615	495
3379.595	485
3382.572	482
3385.547	481
3388.52	484
3391.49	472
3394.458	450
3397.424	440
3400.387	450
3403.348	435
3406.307	427
3409.263	421
3412.217	427
3415.168	410
3418.118	405
3421.065	399
3424.009	392
3426.951	390
3429.891	381
3432.829	371
3435.764	356
3438.697	350
3441.628	351
3444.557	332
3447.483	315
3450.407	306
3453.328	292
3456.247	286
3459.164	279
3462.079	255
3464.991	258
3467.902	242
3470.809	233
3473.715	221
3476.618	217
3479.519	197
3482.418	189
3485.315	178
3488.209	170
3491.101	161
3493.99	161
3496.878	150
3499.763	145
3502.646	136
3505.527	131
3508.405	122
3511.281	109
3514.155	97
3517.027	98
3519.897	77
3522.764	80
3525.629	67
3528.492	57
3531.352	49
3534.211	39
3537.067	35
3539.921	37
3542.773	19
3545.622	5
3548.469	11
3551.315	6
3554.157	0
3556.998	-11
3559.837	-17
3562.673	-11
3565.507	-23
3568.339	-23
3571.169	-39
3573.996	-35
3576.822	-34
3579.645	-36
3582.466	-50
3585.285	-55
3588.101	-45
3590.916	-63
3593.728	-68
3596.538	-65
3599.346	-69
3602.152	-65
3604.956	-65
3607.757	-74
3610.556	-83
3613.354	-80
3616.149	-91
3618.942	-89
3621.732	-91
3624.521	-92
3627.307	-96
3630.092	-97
3632.874	-95
3635.654	-106
3638.432	-95
3641.208	-103
3643.982	-110
3646.753	-109
3649.523	-109
3652.29	-107
3655.055	-107
3657.818	-115
3660.579	-118
3663.338	-113
3666.095	-122
3668.849	-126
3671.602	-123
3674.352	-127
3677.101	-132
3679.847	-134
3682.591	-133
3685.333	-128
3688.073	-134
3690.811	-135
3693.547	-137
3696.281	-142
3699.013	-134
3701.742	-143
3704.47	-141
3707.195	-138
3709.919	-142
3712.64	-141
3715.359	-149
3718.076	-148
3720.792	-149
3723.505	-151
3726.216	-142
3728.925	-151
3731.632	-146
3734.336	-156
3737.039	-153
3739.74	-150
3742.439	-163
3745.136	-147
3747.83	-154
3750.523	-150
3753.213	-150
3755.902	-154
3758.589	-160
3761.273	-149
3763.956	-153
3766.636	-152
3769.315	-148
3771.991	-151
3774.665	-157
3777.338	-149
3780.008	-149
3782.677	-159
3785.343	-157
3788.007	-155
3790.67	-154
3793.33	-154
3795.989	-161
3798.645	-152
3801.299	-160
3803.952	-160
3806.602	-153
3809.251	-159
3811.897	-163
3814.542	-162
3817.184	-154
3819.825	-157
3822.463	-163
3825.1	-156
3827.735	-157
3830.367	-156
3832.998	-161
3835.627	-158
3838.253	-160
3840.878	-163
3843.501	-161
3846.122	-163
3848.741	-164
3851.358	-161
3853.973	-165
3856.586	-158
3859.197	-167
3861.806	-157
3864.414	-163
3867.019	-159
3869.622	-160
3872.224	-148
3874.823	-140
3877.421	-126
3880.016	-96
3882.61	-62
3885.202	-64
3887.792	-81
3890.38	-121
3892.966	-146
3895.55	-155
3898.132	-158
3900.713	-163
3903.291	-169
3905.868	-166
3908.442	-157
3911.015	-161
3913.586	-161
3916.155	-167
3918.722	-166
3921.287	-163
3923.85	-166
3926.411	-165
3928.971	-166
3931.528	-168
3934.084	-158
3936.638	-158
3939.19	-166
3941.74	-171
3944.288	-165
3946.834	-160
3949.378	-160
3951.921	-161
3954.462	-170
3957	-165
3959.537	-158
3962.072	-166
3964.606	-156
3967.137	-164
3969.667	-160
3972.194	-165
3974.72	-158
3977.244	-161
3979.766	-162
3982.286	-162
3984.805	-168
3987.321	-164
3989.836	-156
3992.349	-165
3994.86	-162
3997.369	-162
3999.877	-160
4002.382	-159
4004.886	-165
4007.388	-157
4009.888	-160
4012.386	-162
4014.883	-158
4017.377	-160
4019.87	-160
4022.361	-168
4024.85	-167
4027.338	-162
4029.823	-157
4032.307	-159
4034.789	-164
4037.269	-163
4039.747	-160
4042.224	-160
4044.699	-163
4047.172	-159
4049.643	-158
4052.112	-161
4054.58	-162
4057.046	-164
4059.51	-164
4061.972	-162
4064.432	-159
4066.891	-163
4069.348	-158
4071.803	-168
4074.256	-161
4076.708	-160
4079.158	-156
4081.606	-154
4084.052	-169
4086.497	-161
4088.939	-154
4091.38	-162
4093.819	-156
4096.257	-173
4098.693	-167
4101.127	-171
4103.559	-165
4105.989	5
4108.418	1
4110.845	-3
4113.27	-3
4115.694	-2
4118.115	-3
4120.535	-163
4122.954	-162
4125.37	-160
4127.785	-165
4130.198	-163
4132.609	-163
4135.019	-168
4137.427	-166
4139.833	-169
4142.237	-168
