Data from 2018-2-8_conc=3_n=6_RamanShift_06.txt Node
Date: Mon Mar 12 14:46:58 IST 2018
User: aro
Spectrometer: QEPB0276
Trigger mode: 0
Integration Time (sec): 3.000000E1
Scans to average: 1
Electric dark correction enabled: true
Nonlinearity correction enabled: false
Boxcar width: 0
XAxis mode: Raman Shifts
Number of Pixels in Spectrum: 1044
>>>>>Begin Spectral Data<<<<<
160.701	5
166.742	36
172.777	112
178.805	347
184.826	965
190.841	2061
196.849	3489
202.85	4592
208.845	5034
214.833	5013
220.815	4963
226.789	4912
232.758	4935
238.719	4944
244.674	4913
250.623	4828
256.565	4750
262.5	4705
268.429	4608
274.351	4562
280.267	4533
286.176	4503
292.079	4508
297.975	4439
303.865	4463
309.748	4430
315.625	4415
321.495	4417
327.359	4383
333.217	4399
339.068	4408
344.912	4423
350.751	4419
356.583	4399
362.408	4422
368.227	4433
374.04	4433
379.847	4463
385.647	4478
391.44	4503
397.228	4545
403.009	4532
408.784	4554
414.553	4546
420.315	4594
426.071	4609
431.821	4605
437.565	4566
443.302	4567
449.033	4588
454.758	4536
460.477	4531
466.189	4496
471.896	4449
477.596	4417
483.29	4408
488.978	4418
494.66	4379
500.335	4338
506.005	4282
511.668	4136
517.325	3999
522.977	3888
528.622	3830
534.261	3754
539.894	3730
545.521	3701
551.141	3663
556.756	3640
562.365	3618
567.968	3578
573.565	3575
579.155	3549
584.74	3558
590.319	3530
595.892	3526
601.459	3509
607.02	3510
612.575	3478
618.124	3464
623.667	3418
629.204	3403
634.735	3361
640.261	3351
645.781	3349
651.294	3302
656.802	3277
662.304	3286
667.8	3286
673.29	3308
678.775	3269
684.254	3230
689.726	3247
695.193	3242
700.655	3228
706.11	3203
711.56	3193
717.004	3154
722.442	3172
727.874	3143
733.301	3116
738.722	3098
744.137	3088
749.547	3100
754.951	3102
760.349	3122
765.741	3095
771.128	3105
776.509	3135
781.885	3153
787.254	3154
792.618	3133
797.977	3132
803.33	3120
808.677	3102
814.019	3081
819.355	3059
824.686	3033
830.011	3024
835.33	3033
840.644	3025
845.952	2999
851.255	2988
856.552	3007
861.844	2969
867.13	2949
872.41	2955
877.686	2938
882.955	2884
888.219	2846
893.478	2829
898.731	2800
903.979	2760
909.221	2748
914.458	2730
919.69	2712
924.916	2734
930.136	2726
935.351	2728
940.561	2745
945.766	2754
950.965	2718
956.158	2714
961.347	2686
966.529	2631
971.707	2606
976.879	2556
982.046	2532
987.208	2538
992.364	2551
997.515	2538
1002.66	2567
1007.801	2611
1012.936	2614
1018.066	2623
1023.19	2609
1028.309	2620
1033.423	2603
1038.532	2609
1043.636	2601
1048.734	2556
1053.827	2540
1058.915	2501
1063.998	2487
1069.075	2484
1074.147	2475
1079.214	2472
1084.276	2504
1089.333	2518
1094.385	2513
1099.431	2531
1104.472	2518
1109.509	2489
1114.54	2464
1119.565	2451
1124.586	2380
1129.602	2368
1134.613	2367
1139.618	2345
1144.619	2344
1149.614	2328
1154.604	2368
1159.589	2340
1164.57	2354
1169.545	2357
1174.515	2376
1179.48	2370
1184.44	2337
1189.395	2300
1194.345	2281
1199.29	2267
1204.23	2256
1209.165	2298
1214.095	2286
1219.021	2319
1223.941	2289
1228.856	2321
1233.766	2312
1238.672	2340
1243.572	2339
1248.467	2340
1253.358	2307
1258.244	2268
1263.124	2222
1268	2190
1272.871	2177
1277.737	2132
1282.599	2127
1287.455	2139
1292.306	2139
1297.153	2129
1301.995	2157
1306.832	2154
1311.664	2185
1316.491	2188
1321.314	2167
1326.132	2181
1330.945	2151
1335.753	2087
1340.556	2076
1345.354	2052
1350.148	2037
1354.937	1990
1359.722	1962
1364.501	1927
1369.276	1886
1374.046	1859
1378.811	1829
1383.572	1817
1388.327	1824
1393.079	1823
1397.825	1809
1402.567	1833
1407.304	1835
1412.036	1832
1416.764	1822
1421.487	1821
1426.205	1844
1430.919	1843
1435.628	1866
1440.333	1870
1445.032	1882
1449.727	1917
1454.418	1906
1459.104	1929
1463.785	1891
1468.462	1837
1473.134	1821
1477.802	1773
1482.465	1741
1487.123	1717
1491.777	1673
1496.426	1681
1501.071	1637
1505.711	1634
1510.347	1642
1514.978	1635
1519.604	1661
1524.226	1644
1528.844	1634
1533.457	1614
1538.065	1591
1542.669	1613
1547.269	1593
1551.864	1595
1556.454	1614
1561.041	1634
1565.622	1625
1570.199	1645
1574.772	1662
1579.34	1674
1583.904	1690
1588.464	1713
1593.019	1714
1597.569	1722
1602.115	1733
1606.657	1711
1611.195	1707
1615.728	1716
1620.256	1706
1624.78	1695
1629.3	1708
1633.816	1735
1638.327	1720
1642.834	1712
1647.336	1738
1651.834	1736
1656.328	1738
1660.817	1728
1665.302	1725
1669.783	1686
1674.259	1646
1678.732	1611
1683.199	1566
1687.663	1538
1692.122	1469
1696.577	1420
1701.028	1354
1705.474	1313
1709.917	1282
1714.355	1252
1718.788	1242
1723.218	1235
1727.643	1239
1732.064	1232
1736.481	1218
1740.893	1203
1745.301	1160
1749.705	1154
1754.105	1117
1758.501	1098
1762.893	1083
1767.28	1067
1771.663	1054
1776.042	1052
1780.417	1037
1784.787	1039
1789.154	1026
1793.516	1032
1797.874	996
1802.228	989
1806.578	976
1810.924	964
1815.266	950
1819.603	952
1823.937	954
1828.266	942
1832.591	942
1836.913	943
1841.23	958
1845.543	948
1849.852	947
1854.156	945
1858.457	953
1862.754	957
1867.047	962
1871.335	952
1875.62	960
1879.9	959
1884.177	954
1888.449	936
1892.718	927
1896.982	917
1901.243	885
1905.499	887
1909.752	881
1914	877
1918.245	868
1922.485	848
1926.722	844
1930.954	841
1935.183	842
1939.408	822
1943.628	820
1947.845	816
1952.058	807
1956.267	810
1960.472	804
1964.673	790
1968.87	787
1973.063	781
1977.252	774
1981.438	766
1985.619	771
1989.797	785
1993.971	773
1998.14	784
2002.306	765
2006.469	767
2010.627	765
2014.781	782
2018.932	767
2023.078	779
2027.221	776
2031.36	763
2035.495	756
2039.627	746
2043.754	727
2047.878	736
2051.998	730
2056.114	721
2060.226	714
2064.334	719
2068.439	721
2072.54	699
2076.637	711
2080.73	716
2084.82	710
2088.906	693
2092.988	690
2097.066	692
2101.14	684
2105.211	667
2109.278	656
2113.342	653
2117.401	645
2121.457	645
2125.509	645
2129.558	641
2133.602	633
2137.643	635
2141.681	629
2145.714	629
2149.744	636
2153.77	636
2157.793	622
2161.812	629
2165.827	608
2169.838	597
2173.846	606
2177.851	580
2181.851	590
2185.848	585
2189.841	572
2193.831	580
2197.817	564
2201.799	559
2205.778	562
2209.753	560
2213.725	567
2217.693	560
2221.657	553
2225.618	559
2229.575	559
2233.529	559
2237.479	534
2241.425	537
2245.368	534
2249.307	524
2253.243	517
2257.175	506
2261.104	506
2265.029	489
2268.95	483
2272.868	481
2276.783	469
2280.694	475
2284.601	467
2288.505	469
2292.405	455
2296.302	462
2300.195	454
2304.085	434
2307.971	439
2311.854	435
2315.734	419
2319.609	414
2323.482	415
2327.351	419
2331.216	435
2335.078	441
2338.937	414
2342.792	403
2346.643	406
2350.492	391
2354.336	392
2358.178	409
2362.015	404
2365.85	405
2369.681	398
2373.508	414
2377.333	405
2381.153	406
2384.971	407
2388.785	403
2392.595	401
2396.402	400
2400.206	384
2404.007	392
2407.804	387
2411.597	393
2415.388	378
2419.174	381
2422.958	379
2426.738	379
2430.515	375
2434.289	371
2438.059	361
2441.825	357
2445.589	365
2449.349	353
2453.106	358
2456.859	365
2460.61	348
2464.356	335
2468.1	337
2471.84	329
2475.577	336
2479.311	329
2483.041	324
2486.768	320
2490.492	328
2494.213	326
2497.93	325
2501.644	316
2505.355	324
2509.062	308
2512.766	314
2516.467	309
2520.165	306
2523.859	293
2527.551	300
2531.239	284
2534.923	283
2538.605	274
2542.283	281
2545.958	276
2549.63	287
2553.299	266
2556.964	276
2560.626	267
2564.285	261
2567.941	264
2571.594	259
2575.243	258
2578.89	255
2582.533	229
2586.173	252
2589.809	230
2593.443	247
2597.073	240
2600.701	223
2604.325	234
2607.946	235
2611.564	229
2615.178	234
2618.79	231
2622.398	230
2626.004	227
2629.606	232
2633.205	222
2636.801	214
2640.394	212
2643.983	217
2647.57	226
2651.153	207
2654.734	209
2658.311	207
2661.885	205
2665.456	199
2669.025	201
2672.589	194
2676.151	195
2679.71	196
2683.266	195
2686.819	193
2690.368	182
2693.915	182
2697.458	175
2700.999	174
2704.536	169
2708.071	171
2711.602	169
2715.13	173
2718.656	166
2722.178	169
2725.697	152
2729.214	151
2732.727	156
2736.237	154
2739.744	146
2743.249	149
2746.75	149
2750.248	143
2753.743	145
2757.236	138
2760.725	131
2764.211	129
2767.695	122
2771.175	122
2774.652	123
2778.127	132
2781.598	123
2785.067	122
2788.532	127
2791.995	130
2795.455	129
2798.911	128
2802.365	131
2805.816	133
2809.264	127
2812.709	136
2816.151	136
2819.59	127
2823.026	126
2826.46	130
2829.89	126
2833.318	126
2836.742	141
2840.164	129
2843.583	140
2846.999	135
2850.412	128
2853.822	134
2857.229	136
2860.634	141
2864.035	136
2867.434	154
2870.83	161
2874.223	162
2877.613	162
2881	171
2884.385	174
2887.766	167
2891.145	165
2894.521	171
2897.894	180
2901.264	180
2904.631	174
2907.996	168
2911.358	168
2914.717	173
2918.073	183
2921.426	187
2924.777	198
2928.124	194
2931.469	199
2934.811	206
2938.15	199
2941.487	206
2944.821	196
2948.152	211
2951.48	215
2954.805	206
2958.128	219
2961.447	204
2964.765	208
2968.079	196
2971.39	208
2974.699	204
2978.005	199
2981.308	211
2984.609	214
2987.907	207
2991.202	215
2994.494	218
2997.784	213
3001.07	220
3004.355	240
3007.636	229
3010.915	228
3014.191	232
3017.464	238
3020.734	230
3024.002	233
3027.267	249
3030.53	253
3033.789	249
3037.046	260
3040.301	266
3043.552	278
3046.801	291
3050.048	286
3053.291	298
3056.532	313
3059.771	323
3063.006	324
3066.239	340
3069.469	347
3072.697	361
3075.922	366
3079.144	367
3082.364	383
3085.581	387
3088.795	403
3092.007	407
3095.216	412
3098.423	425
3101.627	443
3104.828	450
3108.026	458
3111.222	459
3114.416	471
3117.607	487
3120.795	494
3123.98	490
3127.163	506
3130.344	535
3133.521	538
3136.696	556
3139.869	559
3143.039	576
3146.206	577
3149.371	576
3152.533	582
3155.693	592
3158.85	599
3162.005	602
3165.157	606
3168.306	609
3171.453	601
3174.597	602
3177.739	616
3180.878	627
3184.014	633
3187.149	623
3190.28	627
3193.409	620
3196.536	637
3199.659	648
3202.781	634
3205.9	644
3209.016	631
3212.13	626
3215.241	640
3218.35	623
3221.456	603
3224.56	607
3227.661	594
3230.76	598
3233.856	587
3236.95	580
3240.041	587
3243.13	558
3246.216	552
3249.3	545
3252.382	546
3255.46	532
3258.537	531
3261.611	534
3264.682	530
3267.751	535
3270.818	525
3273.882	521
3276.943	509
3280.002	515
3283.059	513
3286.113	509
3289.165	503
3292.214	501
3295.261	478
3298.306	472
3301.348	471
3304.387	459
3307.425	469
3310.459	468
3313.492	454
3316.521	445
3319.549	446
3322.574	436
3325.597	433
3328.617	445
3331.635	437
3334.65	429
3337.663	436
3340.674	432
3343.682	425
3346.688	430
3349.691	428
3352.692	417
3355.691	417
3358.687	406
3361.681	419
3364.673	405
3367.662	404
3370.649	400
3373.633	395
3376.615	378
3379.595	383
3382.572	386
3385.547	377
3388.52	374
3391.49	363
3394.458	358
3397.424	345
3400.387	329
3403.348	336
3406.307	327
3409.263	333
3412.217	327
3415.168	327
3418.118	307
3421.065	304
3424.009	314
3426.951	306
3429.891	290
3432.829	290
3435.764	277
3438.697	274
3441.628	266
3444.557	264
3447.483	252
3450.407	242
3453.328	231
3456.247	224
3459.164	210
3462.079	212
3464.991	196
3467.902	182
3470.809	184
3473.715	165
3476.618	160
3479.519	161
3482.418	155
3485.315	136
3488.209	137
3491.101	129
3493.99	128
3496.878	126
3499.763	115
3502.646	100
3505.527	98
3508.405	99
3511.281	90
3514.155	80
3517.027	77
3519.897	68
3522.764	63
3525.629	61
3528.492	51
3531.352	41
3534.211	38
3537.067	32
3539.921	27
3542.773	23
3545.622	7
3548.469	9
3551.315	11
3554.157	-3
3556.998	-3
3559.837	-3
3562.673	-12
3565.507	-10
3568.339	-14
3571.169	-27
3573.996	-22
3576.822	-24
3579.645	-26
3582.466	-30
3585.285	-32
3588.101	-30
3590.916	-37
3593.728	-48
3596.538	-51
3599.346	-50
3602.152	-45
3604.956	-54
3607.757	-47
3610.556	-57
3613.354	-57
3616.149	-65
3618.942	-64
3621.732	-66
3624.521	-69
3627.307	-69
3630.092	-70
3632.874	-71
3635.654	-79
3638.432	-70
3641.208	-79
3643.982	-79
3646.753	-77
3649.523	-84
3652.29	-81
3655.055	-83
3657.818	-82
3660.579	-81
3663.338	-86
3666.095	-90
3668.849	-94
3671.602	-91
3674.352	-90
3677.101	-94
3679.847	-89
3682.591	-95
3685.333	-98
3688.073	-97
3690.811	-103
3693.547	-106
3696.281	-100
3699.013	-103
3701.742	-104
3704.47	-101
3707.195	-103
3709.919	-105
3712.64	-100
3715.359	-108
3718.076	-102
3720.792	-108
3723.505	-108
3726.216	-107
3728.925	-114
3731.632	-109
3734.336	-114
3737.039	-115
3739.74	-111
3742.439	-118
3745.136	-104
3747.83	-116
3750.523	-109
3753.213	-125
3755.902	-114
3758.589	-119
3761.273	-111
3763.956	-108
3766.636	-113
3769.315	-108
3771.991	-111
3774.665	-120
3777.338	-112
3780.008	-114
3782.677	-112
3785.343	-111
3788.007	-115
3790.67	-118
3793.33	-111
3795.989	-117
3798.645	-111
3801.299	-113
3803.952	-123
3806.602	-112
3809.251	-124
3811.897	-122
3814.542	-123
3817.184	-113
3819.825	-118
3822.463	-116
3825.1	-119
3827.735	-111
3830.367	-115
3832.998	-123
3835.627	-119
3838.253	-114
3840.878	-113
3843.501	-113
3846.122	-117
3848.741	-124
3851.358	-116
3853.973	-127
3856.586	-119
3859.197	-124
3861.806	-115
3864.414	-121
3867.019	-112
3869.622	-118
3872.224	-105
3874.823	-105
3877.421	-99
3880.016	-74
3882.61	-57
3885.202	-60
3887.792	-69
3890.38	-99
3892.966	-115
3895.55	-116
3898.132	-116
3900.713	-122
3903.291	-117
3905.868	-121
3908.442	-115
3911.015	-120
3913.586	-124
3916.155	-123
3918.722	-125
3921.287	-119
3923.85	-122
3926.411	-121
3928.971	-121
3931.528	-124
3934.084	-122
3936.638	-119
3939.19	-122
3941.74	-124
3944.288	-121
3946.834	-121
3949.378	-115
3951.921	-124
3954.462	-125
3957	-122
3959.537	-121
3962.072	-123
3964.606	-119
3967.137	-116
3969.667	-124
3972.194	-125
3974.72	-123
3977.244	-126
3979.766	-123
3982.286	-117
3984.805	-122
3987.321	-119
3989.836	-115
3992.349	-124
3994.86	-124
3997.369	-124
3999.877	-116
4002.382	-115
4004.886	-120
4007.388	-120
4009.888	-118
4012.386	-124
4014.883	-121
4017.377	-118
4019.87	-116
4022.361	-122
4024.85	-121
4027.338	-120
4029.823	-119
4032.307	-120
4034.789	-119
4037.269	-118
4039.747	-118
4042.224	-118
4044.699	-119
4047.172	-116
4049.643	-117
4052.112	-119
4054.58	-122
4057.046	-117
4059.51	-124
4061.972	-118
4064.432	-118
4066.891	-122
4069.348	-116
4071.803	-126
4074.256	-119
4076.708	-113
4079.158	-119
4081.606	-111
4084.052	-124
4086.497	-119
4088.939	-111
4091.38	-121
4093.819	-115
4096.257	-125
4098.693	-122
4101.127	-125
4103.559	-122
4105.989	-15
4108.418	-18
4110.845	-12
4113.27	-8
4115.694	-13
4118.115	-16
4120.535	-120
4122.954	-119
4125.37	-118
4127.785	-118
4130.198	-119
4132.609	-123
4135.019	-124
4137.427	-127
4139.833	-123
4142.237	-126
