Data from 2018-2-8_conc=2_n=1_RamanShift_04.txt Node
Date: Mon Mar 12 13:56:28 IST 2018
User: aro
Spectrometer: QEPB0276
Trigger mode: 0
Integration Time (sec): 3.000000E1
Scans to average: 1
Electric dark correction enabled: true
Nonlinearity correction enabled: false
Boxcar width: 0
XAxis mode: Raman Shifts
Number of Pixels in Spectrum: 1044
>>>>>Begin Spectral Data<<<<<
160.701	5
166.742	43
172.777	146
178.805	436
184.826	1181
190.841	2560
196.849	4268
202.85	5607
208.845	6112
214.833	6139
220.815	6074
226.789	6026
232.758	6006
238.719	5996
244.674	5966
250.623	5917
256.565	5808
262.5	5697
268.429	5665
274.351	5599
280.267	5576
286.176	5499
292.079	5504
297.975	5468
303.865	5435
309.748	5450
315.625	5441
321.495	5392
327.359	5381
333.217	5395
339.068	5418
344.912	5395
350.751	5383
356.583	5403
362.408	5347
368.227	5440
374.04	5423
379.847	5436
385.647	5422
391.44	5490
397.228	5525
403.009	5547
408.784	5534
414.553	5561
420.315	5578
426.071	5606
431.821	5592
437.565	5557
443.302	5586
449.033	5564
454.758	5543
460.477	5492
466.189	5468
471.896	5462
477.596	5462
483.29	5397
488.978	5400
494.66	5391
500.335	5322
506.005	5213
511.668	5089
517.325	4951
522.977	4832
528.622	4722
534.261	4693
539.894	4599
545.521	4589
551.141	4588
556.756	4557
562.365	4513
567.968	4492
573.565	4461
579.155	4430
584.74	4438
590.319	4390
595.892	4359
601.459	4374
607.02	4368
612.575	4324
618.124	4303
623.667	4279
629.204	4240
634.735	4228
640.261	4204
645.781	4135
651.294	4163
656.802	4107
662.304	4107
667.8	4094
673.29	4099
678.775	4097
684.254	4074
689.726	4054
695.193	4074
700.655	4003
706.11	4029
711.56	4011
717.004	3968
722.442	3936
727.874	3929
733.301	3907
738.722	3907
744.137	3893
749.547	3877
754.951	3896
760.349	3869
765.741	3884
771.128	3897
776.509	3894
781.885	3950
787.254	3956
792.618	3917
797.977	3900
803.33	3863
808.677	3845
814.019	3826
819.355	3787
824.686	3767
830.011	3755
835.33	3755
840.644	3743
845.952	3741
851.255	3749
856.552	3715
861.844	3685
867.13	3680
872.41	3666
877.686	3646
882.955	3617
888.219	3589
893.478	3570
898.731	3463
903.979	3460
909.221	3431
914.458	3410
919.69	3410
924.916	3404
930.136	3426
935.351	3448
940.561	3437
945.766	3417
950.965	3424
956.158	3363
961.347	3339
966.529	3296
971.707	3246
976.879	3192
982.046	3196
987.208	3183
992.364	3166
997.515	3173
1002.66	3221
1007.801	3241
1012.936	3260
1018.066	3245
1023.19	3249
1028.309	3257
1033.423	3246
1038.532	3236
1043.636	3201
1048.734	3189
1053.827	3152
1058.915	3103
1063.998	3078
1069.075	3081
1074.147	3074
1079.214	3077
1084.276	3075
1089.333	3108
1094.385	3107
1099.431	3136
1104.472	3113
1109.509	3109
1114.54	3067
1119.565	3034
1124.586	2981
1129.602	2942
1134.613	2920
1139.618	2881
1144.619	2895
1149.614	2884
1154.604	2924
1159.589	2897
1164.57	2907
1169.545	2929
1174.515	2924
1179.48	2904
1184.44	2850
1189.395	2856
1194.345	2846
1199.29	2797
1204.23	2813
1209.165	2826
1214.095	2838
1219.021	2849
1223.941	2867
1228.856	2860
1233.766	2890
1238.672	2897
1243.572	2897
1248.467	2858
1253.358	2851
1258.244	2787
1263.124	2744
1268	2706
1272.871	2657
1277.737	2644
1282.599	2635
1287.455	2643
1292.306	2620
1297.153	2659
1301.995	2658
1306.832	2646
1311.664	2690
1316.491	2694
1321.314	2681
1326.132	2669
1330.945	2651
1335.753	2584
1340.556	2549
1345.354	2518
1350.148	2484
1354.937	2445
1359.722	2392
1364.501	2379
1369.276	2320
1374.046	2279
1378.811	2246
1383.572	2255
1388.327	2247
1393.079	2251
1397.825	2266
1402.567	2254
1407.304	2260
1412.036	2264
1416.764	2261
1421.487	2271
1426.205	2283
1430.919	2275
1435.628	2282
1440.333	2300
1445.032	2308
1449.727	2329
1454.418	2335
1459.104	2338
1463.785	2317
1468.462	2253
1473.134	2233
1477.802	2172
1482.465	2120
1487.123	2068
1491.777	2063
1496.426	2028
1501.071	2004
1505.711	2021
1510.347	1994
1514.978	1998
1519.604	1985
1524.226	1990
1528.844	1986
1533.457	1964
1538.065	1965
1542.669	1968
1547.269	1948
1551.864	1967
1556.454	1987
1561.041	1996
1565.622	2008
1570.199	2039
1574.772	2039
1579.34	2078
1583.904	2078
1588.464	2110
1593.019	2126
1597.569	2118
1602.115	2111
1606.657	2091
1611.195	2084
1615.728	2075
1620.256	2077
1624.78	2080
1629.3	2073
1633.816	2096
1638.327	2095
1642.834	2111
1647.336	2118
1651.834	2111
1656.328	2113
1660.817	2088
1665.302	2088
1669.783	2072
1674.259	1998
1678.732	1953
1683.199	1899
1687.663	1831
1692.122	1758
1696.577	1679
1701.028	1622
1705.474	1569
1709.917	1521
1714.355	1501
1718.788	1493
1723.218	1485
1727.643	1477
1732.064	1473
1736.481	1456
1740.893	1434
1745.301	1402
1749.705	1397
1754.105	1352
1758.501	1336
1762.893	1315
1767.28	1303
1771.663	1285
1776.042	1283
1780.417	1259
1784.787	1235
1789.154	1228
1793.516	1213
1797.874	1194
1802.228	1182
1806.578	1184
1810.924	1152
1815.266	1148
1819.603	1145
1823.937	1155
1828.266	1153
1832.591	1134
1836.913	1146
1841.23	1150
1845.543	1158
1849.852	1137
1854.156	1140
1858.457	1157
1862.754	1131
1867.047	1133
1871.335	1146
1875.62	1150
1879.9	1136
1884.177	1125
1888.449	1126
1892.718	1106
1896.982	1082
1901.243	1069
1905.499	1068
1909.752	1046
1914	1049
1918.245	1030
1922.485	1006
1926.722	993
1930.954	999
1935.183	981
1939.408	965
1943.628	992
1947.845	958
1952.058	964
1956.267	945
1960.472	942
1964.673	947
1968.87	920
1973.063	927
1977.252	907
1981.438	926
1985.619	920
1989.797	915
1993.971	919
1998.14	932
2002.306	928
2006.469	934
2010.627	927
2014.781	927
2018.932	924
2023.078	931
2027.221	920
2031.36	914
2035.495	900
2039.627	895
2043.754	864
2047.878	871
2051.998	874
2056.114	861
2060.226	848
2064.334	853
2068.439	855
2072.54	853
2076.637	853
2080.73	825
2084.82	830
2088.906	829
2092.988	820
2097.066	815
2101.14	774
2105.211	783
2109.278	788
2113.342	763
2117.401	755
2121.457	767
2125.509	745
2129.558	739
2133.602	749
2137.643	742
2141.681	740
2145.714	745
2149.744	759
2153.77	761
2157.793	750
2161.812	732
2165.827	725
2169.838	727
2173.846	709
2177.851	693
2181.851	683
2185.848	677
2189.841	690
2193.831	677
2197.817	674
2201.799	661
2205.778	669
2209.753	661
2213.725	675
2217.693	657
2221.657	657
2225.618	658
2229.575	646
2233.529	650
2237.479	636
2241.425	633
2245.368	616
2249.307	624
2253.243	611
2257.175	595
2261.104	600
2265.029	583
2268.95	580
2272.868	578
2276.783	550
2280.694	556
2284.601	546
2288.505	547
2292.405	536
2296.302	538
2300.195	538
2304.085	524
2307.971	503
2311.854	507
2315.734	493
2319.609	485
2323.482	481
2327.351	486
2331.216	490
2335.078	495
2338.937	489
2342.792	477
2346.643	471
2350.492	463
2354.336	469
2358.178	468
2362.015	466
2365.85	478
2369.681	479
2373.508	473
2377.333	461
2381.153	475
2384.971	469
2388.785	474
2392.595	468
2396.402	448
2400.206	461
2404.007	454
2407.804	455
2411.597	452
2415.388	449
2419.174	436
2422.958	429
2426.738	442
2430.515	429
2434.289	429
2438.059	423
2441.825	422
2445.589	433
2449.349	412
2453.106	411
2456.859	404
2460.61	397
2464.356	394
2468.1	386
2471.84	380
2475.577	388
2479.311	370
2483.041	371
2486.768	361
2490.492	368
2494.213	378
2497.93	369
2501.644	368
2505.355	353
2509.062	348
2512.766	348
2516.467	359
2520.165	347
2523.859	342
2527.551	347
2531.239	325
2534.923	319
2538.605	312
2542.283	309
2545.958	309
2549.63	316
2553.299	301
2556.964	312
2560.626	304
2564.285	288
2567.941	288
2571.594	295
2575.243	286
2578.89	275
2582.533	269
2586.173	263
2589.809	269
2593.443	274
2597.073	267
2600.701	259
2604.325	255
2607.946	265
2611.564	261
2615.178	256
2618.79	251
2622.398	259
2626.004	254
2629.606	254
2633.205	249
2636.801	248
2640.394	241
2643.983	243
2647.57	237
2651.153	244
2654.734	234
2658.311	224
2661.885	221
2665.456	223
2669.025	224
2672.589	219
2676.151	218
2679.71	215
2683.266	214
2686.819	214
2690.368	205
2693.915	194
2697.458	202
2700.999	195
2704.536	184
2708.071	181
2711.602	185
2715.13	179
2718.656	179
2722.178	178
2725.697	179
2729.214	167
2732.727	165
2736.237	165
2739.744	160
2743.249	169
2746.75	165
2750.248	154
2753.743	145
2757.236	143
2760.725	141
2764.211	139
2767.695	138
2771.175	136
2774.652	130
2778.127	137
2781.598	139
2785.067	139
2788.532	129
2791.995	135
2795.455	134
2798.911	128
2802.365	137
2805.816	143
2809.264	147
2812.709	145
2816.151	144
2819.59	133
2823.026	139
2826.46	137
2829.89	135
2833.318	133
2836.742	146
2840.164	141
2843.583	147
2846.999	142
2850.412	147
2853.822	140
2857.229	150
2860.634	157
2864.035	157
2867.434	155
2870.83	167
2874.223	177
2877.613	167
2881	191
2884.385	200
2887.766	182
2891.145	187
2894.521	193
2897.894	197
2901.264	191
2904.631	194
2907.996	192
2911.358	189
2914.717	211
2918.073	211
2921.426	214
2924.777	207
2928.124	223
2931.469	219
2934.811	231
2938.15	241
2941.487	240
2944.821	248
2948.152	246
2951.48	245
2954.805	239
2958.128	232
2961.447	240
2964.765	234
2968.079	233
2971.39	238
2974.699	245
2978.005	244
2981.308	254
2984.609	241
2987.907	243
2991.202	245
2994.494	252
2997.784	252
3001.07	256
3004.355	269
3007.636	270
3010.915	271
3014.191	273
3017.464	284
3020.734	276
3024.002	281
3027.267	296
3030.53	297
3033.789	305
3037.046	314
3040.301	317
3043.552	335
3046.801	339
3050.048	349
3053.291	348
3056.532	371
3059.771	379
3063.006	388
3066.239	409
3069.469	410
3072.697	428
3075.922	439
3079.144	458
3082.364	457
3085.581	473
3088.795	464
3092.007	492
3095.216	498
3098.423	516
3101.627	528
3104.828	537
3108.026	548
3111.222	553
3114.416	567
3117.607	575
3120.795	583
3123.98	593
3127.163	618
3130.344	630
3133.521	649
3136.696	665
3139.869	669
3143.039	679
3146.206	693
3149.371	693
3152.533	705
3155.693	713
3158.85	719
3162.005	739
3165.157	724
3168.306	735
3171.453	737
3174.597	753
3177.739	747
3180.878	753
3184.014	753
3187.149	743
3190.28	749
3193.409	761
3196.536	756
3199.659	778
3202.781	774
3205.9	768
3209.016	792
3212.13	766
3215.241	771
3218.35	766
3221.456	751
3224.56	740
3227.661	736
3230.76	720
3233.856	716
3236.95	709
3240.041	695
3243.13	667
3246.216	668
3249.3	657
3252.382	656
3255.46	648
3258.537	646
3261.611	645
3264.682	627
3267.751	627
3270.818	629
3273.882	619
3276.943	624
3280.002	621
3283.059	627
3286.113	599
3289.165	604
3292.214	598
3295.261	572
3298.306	580
3301.348	575
3304.387	588
3307.425	563
3310.459	561
3313.492	548
3316.521	542
3319.549	541
3322.574	538
3325.597	529
3328.617	538
3331.635	520
3334.65	529
3337.663	510
3340.674	536
3343.682	527
3346.688	528
3349.691	519
3352.692	512
3355.691	515
3358.687	511
3361.681	511
3364.673	496
3367.662	494
3370.649	490
3373.633	475
3376.615	463
3379.595	451
3382.572	462
3385.547	457
3388.52	441
3391.49	441
3394.458	428
3397.424	416
3400.387	406
3403.348	411
3406.307	392
3409.263	394
3412.217	393
3415.168	388
3418.118	380
3421.065	377
3424.009	370
3426.951	359
3429.891	352
3432.829	335
3435.764	346
3438.697	326
3441.628	317
3444.557	314
3447.483	296
3450.407	280
3453.328	272
3456.247	265
3459.164	255
3462.079	240
3464.991	247
3467.902	226
3470.809	222
3473.715	208
3476.618	192
3479.519	182
3482.418	178
3485.315	175
3488.209	165
3491.101	156
3493.99	158
3496.878	141
3499.763	130
3502.646	124
3505.527	107
3508.405	124
3511.281	103
3514.155	96
3517.027	90
3519.897	81
3522.764	67
3525.629	66
3528.492	60
3531.352	53
3534.211	33
3537.067	33
3539.921	34
3542.773	21
3545.622	10
3548.469	10
3551.315	4
3554.157	-3
3556.998	-7
3559.837	-9
3562.673	-16
3565.507	-18
3568.339	-20
3571.169	-32
3573.996	-26
3576.822	-35
3579.645	-38
3582.466	-37
3585.285	-46
3588.101	-37
3590.916	-52
3593.728	-59
3596.538	-52
3599.346	-55
3602.152	-58
3604.956	-66
3607.757	-64
3610.556	-76
3613.354	-74
3616.149	-85
3618.942	-89
3621.732	-82
3624.521	-83
3627.307	-89
3630.092	-88
3632.874	-89
3635.654	-95
3638.432	-95
3641.208	-98
3643.982	-101
3646.753	-98
3649.523	-106
3652.29	-100
3655.055	-107
3657.818	-113
3660.579	-104
3663.338	-111
3666.095	-109
3668.849	-119
3671.602	-112
3674.352	-117
3677.101	-122
3679.847	-121
3682.591	-125
3685.333	-123
3688.073	-124
3690.811	-122
3693.547	-125
3696.281	-128
3699.013	-126
3701.742	-128
3704.47	-131
3707.195	-128
3709.919	-132
3712.64	-130
3715.359	-133
3718.076	-135
3720.792	-140
3723.505	-142
3726.216	-135
3728.925	-146
3731.632	-137
3734.336	-143
3737.039	-136
3739.74	-141
3742.439	-142
3745.136	-132
3747.83	-142
3750.523	-141
3753.213	-146
3755.902	-142
3758.589	-154
3761.273	-140
3763.956	-137
3766.636	-142
3769.315	-136
3771.991	-136
3774.665	-144
3777.338	-140
3780.008	-144
3782.677	-143
3785.343	-144
3788.007	-146
3790.67	-146
3793.33	-147
3795.989	-151
3798.645	-139
3801.299	-148
3803.952	-147
3806.602	-139
3809.251	-152
3811.897	-151
3814.542	-155
3817.184	-142
3819.825	-150
3822.463	-151
3825.1	-149
3827.735	-147
3830.367	-143
3832.998	-150
3835.627	-146
3838.253	-145
3840.878	-147
3843.501	-144
3846.122	-150
3848.741	-149
3851.358	-147
3853.973	-154
3856.586	-148
3859.197	-156
3861.806	-144
3864.414	-153
3867.019	-145
3869.622	-149
3872.224	-137
3874.823	-127
3877.421	-115
3880.016	-98
3882.61	-79
3885.202	-75
3887.792	-93
3890.38	-117
3892.966	-135
3895.55	-137
3898.132	-143
3900.713	-144
3903.291	-154
3905.868	-156
3908.442	-148
3911.015	-150
3913.586	-155
3916.155	-152
3918.722	-152
3921.287	-148
3923.85	-152
3926.411	-151
3928.971	-152
3931.528	-157
3934.084	-151
3936.638	-147
3939.19	-154
3941.74	-150
3944.288	-148
3946.834	-147
3949.378	-151
3951.921	-156
3954.462	-160
3957	-148
3959.537	-146
3962.072	-154
3964.606	-150
3967.137	-155
3969.667	-153
3972.194	-158
3974.72	-150
3977.244	-146
3979.766	-150
3982.286	-149
3984.805	-151
3987.321	-146
3989.836	-139
3992.349	-153
3994.86	-152
3997.369	-150
3999.877	-149
4002.382	-145
4004.886	-150
4007.388	-146
4009.888	-149
4012.386	-152
4014.883	-151
4017.377	-147
4019.87	-150
4022.361	-148
4024.85	-146
4027.338	-149
4029.823	-144
4032.307	-146
4034.789	-153
4037.269	-153
4039.747	-149
4042.224	-147
4044.699	-147
4047.172	-147
4049.643	-145
4052.112	-153
4054.58	-153
4057.046	-150
4059.51	-150
4061.972	-142
4064.432	-148
4066.891	-148
4069.348	-146
4071.803	-154
4074.256	-152
4076.708	-149
4079.158	-149
4081.606	-142
4084.052	-149
4086.497	-146
4088.939	-141
4091.38	-146
4093.819	-144
4096.257	-157
4098.693	-152
4101.127	-154
4103.559	-153
4105.989	-13
4108.418	-14
4110.845	-16
4113.27	-21
4115.694	-10
4118.115	-14
4120.535	-152
4122.954	-157
4125.37	-148
4127.785	-145
4130.198	-147
4132.609	-143
4135.019	-156
4137.427	-159
4139.833	-156
4142.237	-159
