Data from 2018-2-8_conc=3_n=5_RamanShift_04.txt Node
Date: Mon Mar 12 14:42:58 IST 2018
User: aro
Spectrometer: QEPB0276
Trigger mode: 0
Integration Time (sec): 3.000000E1
Scans to average: 1
Electric dark correction enabled: true
Nonlinearity correction enabled: false
Boxcar width: 0
XAxis mode: Raman Shifts
Number of Pixels in Spectrum: 1044
>>>>>Begin Spectral Data<<<<<
160.701	14
166.742	35
172.777	113
178.805	355
184.826	975
190.841	2124
196.849	3525
202.85	4632
208.845	5109
214.833	5080
220.815	5009
226.789	5007
232.758	4999
238.719	4998
244.674	4951
250.623	4951
256.565	4847
262.5	4797
268.429	4716
274.351	4671
280.267	4653
286.176	4615
292.079	4605
297.975	4578
303.865	4540
309.748	4579
315.625	4510
321.495	4550
327.359	4543
333.217	4520
339.068	4529
344.912	4535
350.751	4544
356.583	4542
362.408	4543
368.227	4564
374.04	4587
379.847	4589
385.647	4647
391.44	4608
397.228	4662
403.009	4669
408.784	4695
414.553	4701
420.315	4703
426.071	4682
431.821	4725
437.565	4700
443.302	4697
449.033	4681
454.758	4646
460.477	4634
466.189	4607
471.896	4592
477.596	4555
483.29	4547
488.978	4556
494.66	4502
500.335	4444
506.005	4340
511.668	4230
517.325	4090
522.977	4001
528.622	3907
534.261	3866
539.894	3816
545.521	3791
551.141	3778
556.756	3733
562.365	3696
567.968	3683
573.565	3679
579.155	3652
584.74	3654
590.319	3634
595.892	3615
601.459	3603
607.02	3602
612.575	3555
618.124	3533
623.667	3494
629.204	3475
634.735	3449
640.261	3430
645.781	3419
651.294	3393
656.802	3394
662.304	3392
667.8	3379
673.29	3375
678.775	3365
684.254	3335
689.726	3318
695.193	3312
700.655	3322
706.11	3289
711.56	3252
717.004	3243
722.442	3227
727.874	3211
733.301	3202
738.722	3199
744.137	3191
749.547	3174
754.951	3176
760.349	3172
765.741	3190
771.128	3185
776.509	3193
781.885	3241
787.254	3238
792.618	3242
797.977	3222
803.33	3192
808.677	3188
814.019	3163
819.355	3139
824.686	3135
830.011	3091
835.33	3079
840.644	3102
845.952	3083
851.255	3069
856.552	3056
861.844	3055
867.13	3035
872.41	3004
877.686	2989
882.955	2975
888.219	2938
893.478	2906
898.731	2855
903.979	2843
909.221	2837
914.458	2826
919.69	2796
924.916	2804
930.136	2819
935.351	2806
940.561	2820
945.766	2792
950.965	2811
956.158	2783
961.347	2738
966.529	2720
971.707	2687
976.879	2632
982.046	2627
987.208	2623
992.364	2613
997.515	2603
1002.66	2614
1007.801	2648
1012.936	2673
1018.066	2672
1023.19	2699
1028.309	2697
1033.423	2676
1038.532	2694
1043.636	2658
1048.734	2637
1053.827	2591
1058.915	2554
1063.998	2536
1069.075	2547
1074.147	2549
1079.214	2538
1084.276	2545
1089.333	2579
1094.385	2565
1099.431	2548
1104.472	2579
1109.509	2550
1114.54	2521
1119.565	2496
1124.586	2442
1129.602	2440
1134.613	2422
1139.618	2406
1144.619	2385
1149.614	2393
1154.604	2389
1159.589	2400
1164.57	2401
1169.545	2414
1174.515	2430
1179.48	2399
1184.44	2349
1189.395	2353
1194.345	2354
1199.29	2325
1204.23	2327
1209.165	2342
1214.095	2338
1219.021	2349
1223.941	2374
1228.856	2390
1233.766	2367
1238.672	2388
1243.572	2389
1248.467	2381
1253.358	2353
1258.244	2319
1263.124	2258
1268	2232
1272.871	2220
1277.737	2200
1282.599	2183
1287.455	2185
1292.306	2178
1297.153	2188
1301.995	2199
1306.832	2240
1311.664	2236
1316.491	2226
1321.314	2220
1326.132	2216
1330.945	2173
1335.753	2165
1340.556	2117
1345.354	2088
1350.148	2051
1354.937	2022
1359.722	1994
1364.501	1949
1369.276	1933
1374.046	1884
1378.811	1868
1383.572	1869
1388.327	1863
1393.079	1887
1397.825	1874
1402.567	1860
1407.304	1858
1412.036	1865
1416.764	1869
1421.487	1864
1426.205	1885
1430.919	1877
1435.628	1893
1440.333	1922
1445.032	1921
1449.727	1944
1454.418	1946
1459.104	1930
1463.785	1928
1468.462	1889
1473.134	1838
1477.802	1807
1482.465	1766
1487.123	1727
1491.777	1706
1496.426	1700
1501.071	1684
1505.711	1673
1510.347	1679
1514.978	1652
1519.604	1636
1524.226	1655
1528.844	1643
1533.457	1636
1538.065	1618
1542.669	1621
1547.269	1629
1551.864	1619
1556.454	1646
1561.041	1669
1565.622	1659
1570.199	1674
1574.772	1686
1579.34	1700
1583.904	1726
1588.464	1753
1593.019	1728
1597.569	1741
1602.115	1745
1606.657	1722
1611.195	1738
1615.728	1715
1620.256	1735
1624.78	1730
1629.3	1721
1633.816	1731
1638.327	1734
1642.834	1737
1647.336	1741
1651.834	1743
1656.328	1761
1660.817	1752
1665.302	1730
1669.783	1711
1674.259	1660
1678.732	1621
1683.199	1582
1687.663	1526
1692.122	1489
1696.577	1425
1701.028	1368
1705.474	1312
1709.917	1272
1714.355	1258
1718.788	1255
1723.218	1245
1727.643	1240
1732.064	1243
1736.481	1237
1740.893	1201
1745.301	1178
1749.705	1156
1754.105	1125
1758.501	1106
1762.893	1095
1767.28	1089
1771.663	1076
1776.042	1072
1780.417	1042
1784.787	1051
1789.154	1022
1793.516	1014
1797.874	1000
1802.228	990
1806.578	985
1810.924	960
1815.266	934
1819.603	958
1823.937	964
1828.266	952
1832.591	954
1836.913	960
1841.23	950
1845.543	963
1849.852	970
1854.156	958
1858.457	966
1862.754	962
1867.047	958
1871.335	967
1875.62	967
1879.9	956
1884.177	954
1888.449	937
1892.718	921
1896.982	914
1901.243	898
1905.499	894
1909.752	886
1914	858
1918.245	871
1922.485	851
1926.722	862
1930.954	836
1935.183	839
1939.408	824
1943.628	823
1947.845	824
1952.058	818
1956.267	800
1960.472	810
1964.673	808
1968.87	785
1973.063	779
1977.252	772
1981.438	768
1985.619	783
1989.797	767
1993.971	775
1998.14	775
2002.306	770
2006.469	776
2010.627	784
2014.781	775
2018.932	773
2023.078	785
2027.221	776
2031.36	773
2035.495	760
2039.627	746
2043.754	731
2047.878	732
2051.998	725
2056.114	726
2060.226	717
2064.334	718
2068.439	711
2072.54	711
2076.637	709
2080.73	710
2084.82	694
2088.906	697
2092.988	687
2097.066	693
2101.14	669
2105.211	671
2109.278	664
2113.342	646
2117.401	645
2121.457	647
2125.509	632
2129.558	632
2133.602	639
2137.643	634
2141.681	635
2145.714	627
2149.744	628
2153.77	642
2157.793	623
2161.812	624
2165.827	617
2169.838	618
2173.846	598
2177.851	593
2181.851	565
2185.848	577
2189.841	575
2193.831	564
2197.817	566
2201.799	556
2205.778	570
2209.753	565
2213.725	557
2217.693	555
2221.657	561
2225.618	552
2229.575	557
2233.529	546
2237.479	540
2241.425	548
2245.368	532
2249.307	520
2253.243	521
2257.175	508
2261.104	498
2265.029	480
2268.95	491
2272.868	480
2276.783	474
2280.694	465
2284.601	467
2288.505	467
2292.405	454
2296.302	447
2300.195	448
2304.085	441
2307.971	432
2311.854	440
2315.734	417
2319.609	408
2323.482	409
2327.351	414
2331.216	431
2335.078	437
2338.937	423
2342.792	407
2346.643	396
2350.492	397
2354.336	407
2358.178	405
2362.015	404
2365.85	420
2369.681	410
2373.508	404
2377.333	400
2381.153	402
2384.971	412
2388.785	398
2392.595	394
2396.402	387
2400.206	405
2404.007	402
2407.804	387
2411.597	396
2415.388	377
2419.174	391
2422.958	375
2426.738	378
2430.515	379
2434.289	382
2438.059	382
2441.825	370
2445.589	366
2449.349	361
2453.106	354
2456.859	355
2460.61	354
2464.356	337
2468.1	337
2471.84	339
2475.577	343
2479.311	325
2483.041	330
2486.768	327
2490.492	320
2494.213	340
2497.93	319
2501.644	312
2505.355	315
2509.062	301
2512.766	313
2516.467	304
2520.165	296
2523.859	304
2527.551	301
2531.239	288
2534.923	281
2538.605	291
2542.283	280
2545.958	266
2549.63	270
2553.299	269
2556.964	275
2560.626	262
2564.285	255
2567.941	260
2571.594	264
2575.243	253
2578.89	256
2582.533	249
2586.173	246
2589.809	233
2593.443	242
2597.073	237
2600.701	226
2604.325	218
2607.946	228
2611.564	231
2615.178	242
2618.79	224
2622.398	228
2626.004	215
2629.606	221
2633.205	207
2636.801	217
2640.394	224
2643.983	205
2647.57	216
2651.153	211
2654.734	209
2658.311	196
2661.885	197
2665.456	202
2669.025	198
2672.589	203
2676.151	193
2679.71	194
2683.266	193
2686.819	190
2690.368	177
2693.915	173
2697.458	177
2700.999	178
2704.536	183
2708.071	169
2711.602	158
2715.13	169
2718.656	155
2722.178	148
2725.697	151
2729.214	146
2732.727	157
2736.237	147
2739.744	153
2743.249	148
2746.75	150
2750.248	144
2753.743	141
2757.236	127
2760.725	135
2764.211	125
2767.695	123
2771.175	121
2774.652	125
2778.127	115
2781.598	112
2785.067	126
2788.532	122
2791.995	126
2795.455	123
2798.911	126
2802.365	131
2805.816	128
2809.264	122
2812.709	136
2816.151	126
2819.59	133
2823.026	121
2826.46	125
2829.89	126
2833.318	123
2836.742	128
2840.164	126
2843.583	140
2846.999	125
2850.412	129
2853.822	132
2857.229	136
2860.634	130
2864.035	137
2867.434	145
2870.83	146
2874.223	157
2877.613	150
2881	172
2884.385	166
2887.766	151
2891.145	158
2894.521	161
2897.894	172
2901.264	167
2904.631	159
2907.996	162
2911.358	166
2914.717	171
2918.073	175
2921.426	173
2924.777	188
2928.124	194
2931.469	188
2934.811	193
2938.15	197
2941.487	201
2944.821	203
2948.152	201
2951.48	206
2954.805	212
2958.128	194
2961.447	191
2964.765	197
2968.079	195
2971.39	194
2974.699	203
2978.005	206
2981.308	208
2984.609	217
2987.907	196
2991.202	205
2994.494	206
2997.784	208
3001.07	220
3004.355	228
3007.636	223
3010.915	220
3014.191	228
3017.464	230
3020.734	230
3024.002	231
3027.267	239
3030.53	243
3033.789	245
3037.046	261
3040.301	259
3043.552	268
3046.801	277
3050.048	277
3053.291	293
3056.532	299
3059.771	324
3063.006	322
3066.239	333
3069.469	336
3072.697	348
3075.922	360
3079.144	366
3082.364	379
3085.581	384
3088.795	390
3092.007	389
3095.216	403
3098.423	422
3101.627	428
3104.828	438
3108.026	441
3111.222	453
3114.416	463
3117.607	471
3120.795	494
3123.98	476
3127.163	507
3130.344	524
3133.521	534
3136.696	545
3139.869	546
3143.039	557
3146.206	560
3149.371	573
3152.533	569
3155.693	585
3158.85	577
3162.005	594
3165.157	589
3168.306	593
3171.453	596
3174.597	610
3177.739	614
3180.878	610
3184.014	622
3187.149	612
3190.28	623
3193.409	608
3196.536	614
3199.659	616
3202.781	617
3205.9	633
3209.016	621
3212.13	626
3215.241	624
3218.35	613
3221.456	601
3224.56	609
3227.661	592
3230.76	583
3233.856	581
3236.95	572
3240.041	556
3243.13	545
3246.216	558
3249.3	547
3252.382	533
3255.46	522
3258.537	516
3261.611	513
3264.682	512
3267.751	509
3270.818	511
3273.882	503
3276.943	499
3280.002	496
3283.059	497
3286.113	484
3289.165	495
3292.214	474
3295.261	464
3298.306	467
3301.348	458
3304.387	456
3307.425	456
3310.459	453
3313.492	432
3316.521	425
3319.549	429
3322.574	419
3325.597	422
3328.617	433
3331.635	432
3334.65	427
3337.663	414
3340.674	426
3343.682	420
3346.688	411
3349.691	419
3352.692	412
3355.691	417
3358.687	406
3361.681	401
3364.673	400
3367.662	394
3370.649	394
3373.633	384
3376.615	372
3379.595	366
3382.572	366
3385.547	355
3388.52	361
3391.49	346
3394.458	347
3397.424	334
3400.387	333
3403.348	323
3406.307	315
3409.263	318
3412.217	317
3415.168	319
3418.118	308
3421.065	303
3424.009	299
3426.951	291
3429.891	283
3432.829	267
3435.764	265
3438.697	252
3441.628	256
3444.557	251
3447.483	235
3450.407	218
3453.328	215
3456.247	218
3459.164	207
3462.079	197
3464.991	183
3467.902	184
3470.809	175
3473.715	157
3476.618	154
3479.519	149
3482.418	146
3485.315	130
3488.209	125
3491.101	120
3493.99	127
3496.878	112
3499.763	107
3502.646	99
3505.527	98
3508.405	93
3511.281	83
3514.155	80
3517.027	72
3519.897	62
3522.764	55
3525.629	50
3528.492	40
3531.352	38
3534.211	37
3537.067	25
3539.921	20
3542.773	14
3545.622	8
3548.469	2
3551.315	5
3554.157	-3
3556.998	-6
3559.837	-14
3562.673	-10
3565.507	-17
3568.339	-18
3571.169	-23
3573.996	-19
3576.822	-22
3579.645	-23
3582.466	-35
3585.285	-39
3588.101	-37
3590.916	-46
3593.728	-50
3596.538	-46
3599.346	-56
3602.152	-51
3604.956	-56
3607.757	-58
3610.556	-62
3613.354	-57
3616.149	-68
3618.942	-73
3621.732	-74
3624.521	-71
3627.307	-68
3630.092	-75
3632.874	-73
3635.654	-78
3638.432	-75
3641.208	-77
3643.982	-84
3646.753	-79
3649.523	-84
3652.29	-84
3655.055	-86
3657.818	-87
3660.579	-93
3663.338	-88
3666.095	-89
3668.849	-93
3671.602	-95
3674.352	-96
3677.101	-99
3679.847	-99
3682.591	-105
3685.333	-91
3688.073	-98
3690.811	-100
3693.547	-109
3696.281	-108
3699.013	-105
3701.742	-112
3704.47	-107
3707.195	-105
3709.919	-105
3712.64	-104
3715.359	-113
3718.076	-110
3720.792	-111
3723.505	-113
3726.216	-113
3728.925	-117
3731.632	-109
3734.336	-119
3737.039	-112
3739.74	-119
3742.439	-125
3745.136	-115
3747.83	-123
3750.523	-119
3753.213	-118
3755.902	-116
3758.589	-123
3761.273	-115
3763.956	-115
3766.636	-118
3769.315	-109
3771.991	-113
3774.665	-118
3777.338	-110
3780.008	-118
3782.677	-121
3785.343	-118
3788.007	-122
3790.67	-121
3793.33	-112
3795.989	-115
3798.645	-117
3801.299	-120
3803.952	-127
3806.602	-117
3809.251	-128
3811.897	-126
3814.542	-120
3817.184	-116
3819.825	-118
3822.463	-123
3825.1	-122
3827.735	-123
3830.367	-125
3832.998	-124
3835.627	-123
3838.253	-122
3840.878	-118
3843.501	-114
3846.122	-117
3848.741	-126
3851.358	-121
3853.973	-124
3856.586	-118
3859.197	-128
3861.806	-122
3864.414	-125
3867.019	-114
3869.622	-123
3872.224	-113
3874.823	-108
3877.421	-96
3880.016	-77
3882.61	-51
3885.202	-53
3887.792	-69
3890.38	-91
3892.966	-116
3895.55	-120
3898.132	-121
3900.713	-121
3903.291	-127
3905.868	-122
3908.442	-118
3911.015	-118
3913.586	-118
3916.155	-128
3918.722	-125
3921.287	-120
3923.85	-125
3926.411	-127
3928.971	-124
3931.528	-129
3934.084	-122
3936.638	-121
3939.19	-130
3941.74	-125
3944.288	-128
3946.834	-120
3949.378	-122
3951.921	-123
3954.462	-131
3957	-124
3959.537	-123
3962.072	-128
3964.606	-119
3967.137	-117
3969.667	-124
3972.194	-128
3974.72	-121
3977.244	-125
3979.766	-124
3982.286	-119
3984.805	-128
3987.321	-121
3989.836	-115
3992.349	-120
3994.86	-125
3997.369	-124
3999.877	-121
4002.382	-116
4004.886	-124
4007.388	-117
4009.888	-115
4012.386	-119
4014.883	-123
4017.377	-122
4019.87	-121
4022.361	-125
4024.85	-128
4027.338	-122
4029.823	-122
4032.307	-121
4034.789	-126
4037.269	-126
4039.747	-121
4042.224	-120
4044.699	-125
4047.172	-118
4049.643	-118
4052.112	-122
4054.58	-122
4057.046	-122
4059.51	-123
4061.972	-118
4064.432	-122
4066.891	-120
4069.348	-122
4071.803	-124
4074.256	-121
4076.708	-121
4079.158	-127
4081.606	-121
4084.052	-121
4086.497	-123
4088.939	-116
4091.38	-125
4093.819	-123
4096.257	-131
4098.693	-125
4101.127	-127
4103.559	-125
4105.989	-2
4108.418	-3
4110.845	-7
4113.27	-8
4115.694	-19
4118.115	-10
4120.535	-124
4122.954	-127
4125.37	-119
4127.785	-123
4130.198	-120
4132.609	-120
4135.019	-124
4137.427	-131
4139.833	-132
4142.237	-130
