Data from 2018-2-8_conc=0_n=1_RamanShift_02.txt Node
Date: Mon Mar 12 13:17:29 IST 2018
User: aro
Spectrometer: QEPB0276
Trigger mode: 0
Integration Time (sec): 3.000000E1
Scans to average: 1
Electric dark correction enabled: true
Nonlinearity correction enabled: false
Boxcar width: 0
XAxis mode: Raman Shifts
Number of Pixels in Spectrum: 1044
>>>>>Begin Spectral Data<<<<<
160.701	22
166.742	53
172.777	146
178.805	457
184.826	1227
190.841	2618
196.849	4361
202.85	5677
208.845	6214
214.833	6189
220.815	6091
226.789	6073
232.758	6083
238.719	6053
244.674	6029
250.623	5975
256.565	5895
262.5	5776
268.429	5716
274.351	5666
280.267	5618
286.176	5601
292.079	5570
297.975	5525
303.865	5543
309.748	5499
315.625	5476
321.495	5454
327.359	5467
333.217	5435
339.068	5462
344.912	5506
350.751	5475
356.583	5513
362.408	5505
368.227	5522
374.04	5548
379.847	5514
385.647	5586
391.44	5575
397.228	5658
403.009	5637
408.784	5648
414.553	5676
420.315	5684
426.071	5717
431.821	5704
437.565	5681
443.302	5694
449.033	5660
454.758	5644
460.477	5634
466.189	5580
471.896	5562
477.596	5524
483.29	5489
488.978	5516
494.66	5505
500.335	5399
506.005	5329
511.668	5122
517.325	5009
522.977	4873
528.622	4799
534.261	4751
539.894	4673
545.521	4633
551.141	4640
556.756	4598
562.365	4550
567.968	4547
573.565	4516
579.155	4478
584.74	4480
590.319	4456
595.892	4439
601.459	4407
607.02	4422
612.575	4370
618.124	4335
623.667	4311
629.204	4275
634.735	4230
640.261	4208
645.781	4186
651.294	4190
656.802	4186
662.304	4177
667.8	4131
673.29	4151
678.775	4116
684.254	4126
689.726	4086
695.193	4053
700.655	4061
706.11	4060
711.56	4010
717.004	4005
722.442	3969
727.874	3932
733.301	3940
738.722	3928
744.137	3924
749.547	3923
754.951	3938
760.349	3893
765.741	3908
771.128	3947
776.509	3932
781.885	3947
787.254	3991
792.618	3971
797.977	3947
803.33	3911
808.677	3903
814.019	3874
819.355	3851
824.686	3809
830.011	3794
835.33	3785
840.644	3792
845.952	3797
851.255	3764
856.552	3758
861.844	3780
867.13	3705
872.41	3733
877.686	3709
882.955	3680
888.219	3646
893.478	3618
898.731	3525
903.979	3484
909.221	3464
914.458	3451
919.69	3425
924.916	3441
930.136	3445
935.351	3448
940.561	3450
945.766	3423
950.965	3447
956.158	3397
961.347	3379
966.529	3335
971.707	3283
976.879	3259
982.046	3202
987.208	3202
992.364	3177
997.515	3227
1002.66	3242
1007.801	3272
1012.936	3267
1018.066	3284
1023.19	3309
1028.309	3287
1033.423	3313
1038.532	3287
1043.636	3241
1048.734	3212
1053.827	3161
1058.915	3132
1063.998	3125
1069.075	3092
1074.147	3114
1079.214	3113
1084.276	3118
1089.333	3177
1094.385	3165
1099.431	3175
1104.472	3151
1109.509	3127
1114.54	3087
1119.565	3077
1124.586	2994
1129.602	2971
1134.613	2958
1139.618	2934
1144.619	2912
1149.614	2925
1154.604	2931
1159.589	2935
1164.57	2948
1169.545	2949
1174.515	2931
1179.48	2928
1184.44	2899
1189.395	2891
1194.345	2854
1199.29	2841
1204.23	2831
1209.165	2834
1214.095	2868
1219.021	2877
1223.941	2894
1228.856	2900
1233.766	2918
1238.672	2940
1243.572	2910
1248.467	2886
1253.358	2863
1258.244	2828
1263.124	2772
1268	2714
1272.871	2695
1277.737	2656
1282.599	2645
1287.455	2660
1292.306	2650
1297.153	2665
1301.995	2674
1306.832	2715
1311.664	2724
1316.491	2737
1321.314	2713
1326.132	2689
1330.945	2657
1335.753	2606
1340.556	2566
1345.354	2529
1350.148	2468
1354.937	2444
1359.722	2401
1364.501	2371
1369.276	2351
1374.046	2318
1378.811	2273
1383.572	2268
1388.327	2261
1393.079	2268
1397.825	2258
1402.567	2299
1407.304	2271
1412.036	2271
1416.764	2281
1421.487	2266
1426.205	2291
1430.919	2287
1435.628	2291
1440.333	2330
1445.032	2331
1449.727	2378
1454.418	2366
1459.104	2368
1463.785	2311
1468.462	2279
1473.134	2245
1477.802	2190
1482.465	2147
1487.123	2076
1491.777	2067
1496.426	2045
1501.071	2023
1505.711	2018
1510.347	2015
1514.978	1993
1519.604	1994
1524.226	2003
1528.844	1960
1533.457	1970
1538.065	1967
1542.669	1964
1547.269	1948
1551.864	1987
1556.454	1996
1561.041	2008
1565.622	2002
1570.199	2022
1574.772	2045
1579.34	2060
1583.904	2108
1588.464	2110
1593.019	2104
1597.569	2128
1602.115	2103
1606.657	2110
1611.195	2096
1615.728	2087
1620.256	2074
1624.78	2089
1629.3	2084
1633.816	2087
1638.327	2102
1642.834	2103
1647.336	2131
1651.834	2105
1656.328	2111
1660.817	2109
1665.302	2087
1669.783	2038
1674.259	1995
1678.732	1932
1683.199	1880
1687.663	1817
1692.122	1761
1696.577	1669
1701.028	1618
1705.474	1543
1709.917	1499
1714.355	1482
1718.788	1472
1723.218	1484
1727.643	1452
1732.064	1475
1736.481	1441
1740.893	1414
1745.301	1391
1749.705	1360
1754.105	1333
1758.501	1321
1762.893	1294
1767.28	1272
1771.663	1287
1776.042	1261
1780.417	1251
1784.787	1221
1789.154	1217
1793.516	1213
1797.874	1171
1802.228	1173
1806.578	1165
1810.924	1146
1815.266	1145
1819.603	1145
1823.937	1131
1828.266	1130
1832.591	1144
1836.913	1143
1841.23	1147
1845.543	1142
1849.852	1139
1854.156	1131
1858.457	1138
1862.754	1140
1867.047	1127
1871.335	1136
1875.62	1135
1879.9	1123
1884.177	1109
1888.449	1113
1892.718	1094
1896.982	1076
1901.243	1059
1905.499	1049
1909.752	1022
1914	1007
1918.245	1006
1922.485	983
1926.722	970
1930.954	976
1935.183	944
1939.408	956
1943.628	958
1947.845	950
1952.058	926
1956.267	945
1960.472	922
1964.673	921
1968.87	905
1973.063	903
1977.252	906
1981.438	914
1985.619	894
1989.797	902
1993.971	900
1998.14	910
2002.306	906
2006.469	921
2010.627	910
2014.781	928
2018.932	914
2023.078	925
2027.221	908
2031.36	887
2035.495	893
2039.627	872
2043.754	848
2047.878	861
2051.998	850
2056.114	839
2060.226	844
2064.334	839
2068.439	832
2072.54	828
2076.637	821
2080.73	828
2084.82	829
2088.906	805
2092.988	795
2097.066	790
2101.14	765
2105.211	772
2109.278	761
2113.342	756
2117.401	754
2121.457	742
2125.509	726
2129.558	734
2133.602	734
2137.643	736
2141.681	732
2145.714	734
2149.744	739
2153.77	745
2157.793	724
2161.812	730
2165.827	715
2169.838	725
2173.846	687
2177.851	699
2181.851	681
2185.848	671
2189.841	670
2193.831	672
2197.817	664
2201.799	653
2205.778	660
2209.753	654
2213.725	635
2217.693	651
2221.657	647
2225.618	650
2229.575	653
2233.529	640
2237.479	638
2241.425	624
2245.368	612
2249.307	607
2253.243	604
2257.175	588
2261.104	586
2265.029	569
2268.95	578
2272.868	558
2276.783	553
2280.694	546
2284.601	542
2288.505	538
2292.405	528
2296.302	517
2300.195	516
2304.085	511
2307.971	494
2311.854	508
2315.734	488
2319.609	482
2323.482	487
2327.351	475
2331.216	483
2335.078	487
2338.937	479
2342.792	465
2346.643	454
2350.492	457
2354.336	464
2358.178	449
2362.015	465
2365.85	457
2369.681	466
2373.508	466
2377.333	460
2381.153	465
2384.971	477
2388.785	459
2392.595	445
2396.402	443
2400.206	449
2404.007	436
2407.804	444
2411.597	441
2415.388	429
2419.174	431
2422.958	423
2426.738	426
2430.515	418
2434.289	421
2438.059	417
2441.825	416
2445.589	409
2449.349	390
2453.106	400
2456.859	390
2460.61	391
2464.356	389
2468.1	370
2471.84	370
2475.577	378
2479.311	363
2483.041	367
2486.768	360
2490.492	352
2494.213	364
2497.93	358
2501.644	356
2505.355	333
2509.062	337
2512.766	340
2516.467	327
2520.165	334
2523.859	322
2527.551	316
2531.239	309
2534.923	308
2538.605	303
2542.283	296
2545.958	293
2549.63	300
2553.299	274
2556.964	300
2560.626	286
2564.285	274
2567.941	281
2571.594	266
2575.243	279
2578.89	267
2582.533	261
2586.173	267
2589.809	251
2593.443	260
2597.073	249
2600.701	238
2604.325	245
2607.946	252
2611.564	248
2615.178	244
2618.79	236
2622.398	237
2626.004	235
2629.606	232
2633.205	229
2636.801	235
2640.394	237
2643.983	227
2647.57	228
2651.153	222
2654.734	219
2658.311	210
2661.885	214
2665.456	220
2669.025	216
2672.589	211
2676.151	206
2679.71	212
2683.266	212
2686.819	188
2690.368	189
2693.915	192
2697.458	182
2700.999	193
2704.536	189
2708.071	167
2711.602	175
2715.13	169
2718.656	159
2722.178	159
2725.697	156
2729.214	152
2732.727	159
2736.237	154
2739.744	153
2743.249	146
2746.75	141
2750.248	142
2753.743	132
2757.236	136
2760.725	134
2764.211	132
2767.695	122
2771.175	113
2774.652	121
2778.127	119
2781.598	131
2785.067	130
2788.532	130
2791.995	130
2795.455	128
2798.911	122
2802.365	127
2805.816	128
2809.264	122
2812.709	134
2816.151	132
2819.59	126
2823.026	131
2826.46	122
2829.89	124
2833.318	114
2836.742	136
2840.164	129
2843.583	126
2846.999	131
2850.412	125
2853.822	127
2857.229	132
2860.634	134
2864.035	142
2867.434	146
2870.83	160
2874.223	167
2877.613	170
2881	182
2884.385	173
2887.766	176
2891.145	161
2894.521	182
2897.894	185
2901.264	189
2904.631	185
2907.996	182
2911.358	185
2914.717	205
2918.073	198
2921.426	198
2924.777	220
2928.124	213
2931.469	227
2934.811	228
2938.15	226
2941.487	235
2944.821	244
2948.152	246
2951.48	239
2954.805	244
2958.128	241
2961.447	221
2964.765	238
2968.079	232
2971.39	222
2974.699	237
2978.005	233
2981.308	245
2984.609	234
2987.907	230
2991.202	235
2994.494	235
2997.784	241
3001.07	261
3004.355	266
3007.636	248
3010.915	250
3014.191	260
3017.464	267
3020.734	269
3024.002	283
3027.267	285
3030.53	278
3033.789	292
3037.046	306
3040.301	306
3043.552	317
3046.801	332
3050.048	336
3053.291	339
3056.532	366
3059.771	371
3063.006	380
3066.239	392
3069.469	404
3072.697	415
3075.922	430
3079.144	439
3082.364	453
3085.581	463
3088.795	471
3092.007	471
3095.216	481
3098.423	501
3101.627	518
3104.828	522
3108.026	534
3111.222	553
3114.416	557
3117.607	573
3120.795	580
3123.98	584
3127.163	609
3130.344	628
3133.521	626
3136.696	650
3139.869	654
3143.039	660
3146.206	673
3149.371	680
3152.533	706
3155.693	695
3158.85	719
3162.005	730
3165.157	726
3168.306	737
3171.453	727
3174.597	746
3177.739	742
3180.878	733
3184.014	752
3187.149	750
3190.28	754
3193.409	741
3196.536	756
3199.659	775
3202.781	766
3205.9	775
3209.016	770
3212.13	768
3215.241	766
3218.35	765
3221.456	741
3224.56	739
3227.661	720
3230.76	714
3233.856	703
3236.95	699
3240.041	683
3243.13	661
3246.216	666
3249.3	651
3252.382	646
3255.46	639
3258.537	647
3261.611	634
3264.682	633
3267.751	623
3270.818	621
3273.882	613
3276.943	596
3280.002	607
3283.059	597
3286.113	593
3289.165	593
3292.214	585
3295.261	563
3298.306	564
3301.348	561
3304.387	560
3307.425	544
3310.459	564
3313.492	541
3316.521	524
3319.549	530
3322.574	512
3325.597	527
3328.617	523
3331.635	519
3334.65	521
3337.663	507
3340.674	522
3343.682	519
3346.688	509
3349.691	519
3352.692	507
3355.691	507
3358.687	505
3361.681	502
3364.673	498
3367.662	476
3370.649	466
3373.633	460
3376.615	448
3379.595	442
3382.572	455
3385.547	446
3388.52	425
3391.49	423
3394.458	400
3397.424	393
3400.387	407
3403.348	394
3406.307	381
3409.263	384
3412.217	379
3415.168	375
3418.118	366
3421.065	367
3424.009	353
3426.951	354
3429.891	344
3432.829	328
3435.764	312
3438.697	307
3441.628	301
3444.557	294
3447.483	289
3450.407	265
3453.328	251
3456.247	256
3459.164	244
3462.079	233
3464.991	222
3467.902	206
3470.809	214
3473.715	184
3476.618	175
3479.519	183
3482.418	169
3485.315	160
3488.209	140
3491.101	150
3493.99	142
3496.878	136
3499.763	116
3502.646	115
3505.527	107
3508.405	111
3511.281	90
3514.155	78
3517.027	74
3519.897	64
3522.764	63
3525.629	44
3528.492	39
3531.352	37
3534.211	33
3537.067	26
3539.921	18
3542.773	8
3545.622	0
3548.469	-4
3551.315	-7
3554.157	-9
3556.998	-15
3559.837	-23
3562.673	-28
3565.507	-29
3568.339	-36
3571.169	-49
3573.996	-44
3576.822	-48
3579.645	-49
3582.466	-47
3585.285	-54
3588.101	-54
3590.916	-73
3593.728	-74
3596.538	-76
3599.346	-72
3602.152	-77
3604.956	-73
3607.757	-80
3610.556	-90
3613.354	-84
3616.149	-96
3618.942	-101
3621.732	-92
3624.521	-102
3627.307	-90
3630.092	-94
3632.874	-102
3635.654	-104
3638.432	-101
3641.208	-106
3643.982	-114
3646.753	-117
3649.523	-114
3652.29	-109
3655.055	-112
3657.818	-113
3660.579	-119
3663.338	-119
3666.095	-128
3668.849	-127
3671.602	-124
3674.352	-128
3677.101	-134
3679.847	-131
3682.591	-137
3685.333	-136
3688.073	-133
3690.811	-137
3693.547	-146
3696.281	-135
3699.013	-139
3701.742	-139
3704.47	-140
3707.195	-137
3709.919	-144
3712.64	-142
3715.359	-150
3718.076	-145
3720.792	-146
3723.505	-148
3726.216	-141
3728.925	-149
3731.632	-151
3734.336	-152
3737.039	-147
3739.74	-154
3742.439	-154
3745.136	-149
3747.83	-159
3750.523	-154
3753.213	-149
3755.902	-154
3758.589	-157
3761.273	-148
3763.956	-148
3766.636	-155
3769.315	-149
3771.991	-148
3774.665	-159
3777.338	-153
3780.008	-159
3782.677	-161
3785.343	-157
3788.007	-152
3790.67	-158
3793.33	-149
3795.989	-153
3798.645	-157
3801.299	-156
3803.952	-164
3806.602	-155
3809.251	-160
3811.897	-165
3814.542	-158
3817.184	-153
3819.825	-160
3822.463	-159
3825.1	-155
3827.735	-160
3830.367	-163
3832.998	-161
3835.627	-158
3838.253	-156
3840.878	-158
3843.501	-156
3846.122	-161
3848.741	-166
3851.358	-153
3853.973	-164
3856.586	-161
3859.197	-161
3861.806	-157
3864.414	-159
3867.019	-158
3869.622	-159
3872.224	-147
3874.823	-132
3877.421	-117
3880.016	-89
3882.61	-57
3885.202	-58
3887.792	-77
3890.38	-115
3892.966	-145
3895.55	-154
3898.132	-155
3900.713	-158
3903.291	-162
3905.868	-163
3908.442	-158
3911.015	-163
3913.586	-163
3916.155	-168
3918.722	-163
3921.287	-163
3923.85	-162
3926.411	-162
3928.971	-160
3931.528	-164
3934.084	-163
3936.638	-165
3939.19	-167
3941.74	-164
3944.288	-164
3946.834	-159
3949.378	-162
3951.921	-164
3954.462	-171
3957	-164
3959.537	-163
3962.072	-161
3964.606	-157
3967.137	-161
3969.667	-161
3972.194	-164
3974.72	-164
3977.244	-162
3979.766	-170
3982.286	-163
3984.805	-160
3987.321	-161
3989.836	-153
3992.349	-156
3994.86	-163
3997.369	-162
3999.877	-164
4002.382	-157
4004.886	-166
4007.388	-160
4009.888	-160
4012.386	-165
4014.883	-159
4017.377	-162
4019.87	-165
4022.361	-166
4024.85	-163
4027.338	-157
4029.823	-158
4032.307	-153
4034.789	-162
4037.269	-159
4039.747	-163
4042.224	-161
4044.699	-161
4047.172	-156
4049.643	-151
4052.112	-160
4054.58	-163
4057.046	-171
4059.51	-161
4061.972	-157
4064.432	-163
4066.891	-162
4069.348	-158
4071.803	-166
4074.256	-162
4076.708	-155
4079.158	-163
4081.606	-156
4084.052	-162
4086.497	-159
4088.939	-153
4091.38	-159
4093.819	-163
4096.257	-169
4098.693	-163
4101.127	-168
4103.559	-169
4105.989	7
4108.418	5
4110.845	5
4113.27	0
4115.694	-1
4118.115	-7
4120.535	-165
4122.954	-168
4125.37	-158
4127.785	-161
4130.198	-158
4132.609	-156
4135.019	-164
4137.427	-173
4139.833	-169
4142.237	-172
