Data from 2018-2-8_dark_RamanShift_04.txt Node
Date: Mon Mar 12 13:09:29 IST 2018
User: aro
Spectrometer: QEPB0276
Trigger mode: 0
Integration Time (sec): 3.000000E1
Scans to average: 1
Electric dark correction enabled: true
Nonlinearity correction enabled: false
Boxcar width: 0
XAxis mode: Raman Shifts
Number of Pixels in Spectrum: 1044
>>>>>Begin Spectral Data<<<<<
160.701	2.8
166.742	1.8
172.777	1.8
178.805	-4.2
184.826	-7.2
190.841	-1.2
196.849	-2.2
202.85	4.8
208.845	-2.2
214.833	-3.2
220.815	5.8
226.789	2.8
232.758	-6.2
238.719	-7.2
244.674	-10.2
250.623	1.8
256.565	0.8
262.5	-1.2
268.429	-2.2
274.351	-6.2
280.267	-0.2
286.176	-6.2
292.079	-5.2
297.975	-0.2
303.865	2.8
309.748	1.8
315.625	0.8
321.495	-0.2
327.359	4.8
333.217	-4.2
339.068	-5.2
344.912	-7.2
350.751	-2.2
356.583	3.8
362.408	7.8
368.227	0.8
374.04	0.8
379.847	1.8
385.647	0.8
391.44	-5.2
397.228	-7.2
403.009	1.8
408.784	7.8
414.553	1.8
420.315	2.8
426.071	-0.2
431.821	-4.2
437.565	-2.2
443.302	-3.2
449.033	-1.2
454.758	-1.2
460.477	-0.2
466.189	4.8
471.896	0.8
477.596	-4.2
483.29	-7.2
488.978	-2.2
494.66	-0.2
500.335	-0.2
506.005	3.8
511.668	-0.2
517.325	-1.2
522.977	-3.2
528.622	-4.2
534.261	1.8
539.894	-0.2
545.521	-4.2
551.141	1.8
556.756	-3.2
562.365	1.8
567.968	-3.2
573.565	-3.2
579.155	-7.2
584.74	0.8
590.319	-2.2
595.892	-2.2
601.459	1.8
607.02	-3.2
612.575	1.8
618.124	-4.2
623.667	-3.2
629.204	-1.2
634.735	-6.2
640.261	-0.2
645.781	-3.2
651.294	6.8
656.802	-0.2
662.304	-1.2
667.8	-2.2
673.29	-4.2
678.775	-0.2
684.254	-5.2
689.726	-2.2
695.193	-0.2
700.655	6.8
706.11	-7.2
711.56	0.8
717.004	-7.2
722.442	1.8
727.874	-3.2
733.301	-1.2
738.722	0.8
744.137	2.8
749.547	0.8
754.951	-5.2
760.349	-3.2
765.741	-5.2
771.128	-1.2
776.509	4.8
781.885	6.8
787.254	-1.2
792.618	6.8
797.977	-0.2
803.33	-0.2
808.677	-6.2
814.019	-2.2
819.355	-0.2
824.686	-0.2
830.011	-5.2
835.33	-2.2
840.644	-2.2
845.952	-5.2
851.255	-6.2
856.552	-4.2
861.844	-4.2
867.13	0.8
872.41	0.8
877.686	-5.2
882.955	-4.2
888.219	0.8
893.478	-0.2
898.731	1.8
903.979	-2.2
909.221	6.8
914.458	-1.2
919.69	-2.2
924.916	-3.2
930.136	-4.2
935.351	-3.2
940.561	3.8
945.766	-4.2
950.965	3.8
956.158	1.8
961.347	0.8
966.529	0.8
971.707	-4.2
976.879	-5.2
982.046	-2.2
987.208	-0.2
992.364	6.8
997.515	3.8
1002.66	6.8
1007.801	-1.2
1012.936	-3.2
1018.066	-8.2
1023.19	-15.2
1028.309	-3.2
1033.423	2.8
1038.532	0.8
1043.636	-4.2
1048.734	0.8
1053.827	-2.2
1058.915	-3.2
1063.998	-5.2
1069.075	-0.2
1074.147	3.8
1079.214	1.8
1084.276	-4.2
1089.333	-0.2
1094.385	0.8
1099.431	-6.2
1104.472	-7.2
1109.509	-5.2
1114.54	1.8
1119.565	6.8
1124.586	2.8
1129.602	-0.2
1134.613	-0.2
1139.618	-8.2
1144.619	2.8
1149.614	-8.2
1154.604	-0.2
1159.589	6.8
1164.57	3.8
1169.545	-2.2
1174.515	3.8
1179.48	2.8
1184.44	-6.2
1189.395	-7.2
1194.345	-4.2
1199.29	-2.2
1204.23	-1.2
1209.165	-1.2
1214.095	-0.2
1219.021	-3.2
1223.941	-4.2
1228.856	-4.2
1233.766	-3.2
1238.672	3.8
1243.572	-5.2
1248.467	-1.2
1253.358	-2.2
1258.244	-5.2
1263.124	3.8
1268	-10.2
1272.871	2.8
1277.737	2.8
1282.599	3.8
1287.455	0.8
1292.306	-3.2
1297.153	-2.2
1301.995	-2.2
1306.832	-10.2
1311.664	1.8
1316.491	-1.2
1321.314	-2.2
1326.132	-1.2
1330.945	3.8
1335.753	-4.2
1340.556	-4.2
1345.354	-2.2
1350.148	-4.2
1354.937	-3.2
1359.722	-3.2
1364.501	1.8
1369.276	2.8
1374.046	-0.2
1378.811	-4.2
1383.572	-2.2
1388.327	-2.2
1393.079	-1.2
1397.825	-2.2
1402.567	0.8
1407.304	0.8
1412.036	-2.2
1416.764	-1.2
1421.487	-2.2
1426.205	-2.2
1430.919	-4.2
1435.628	-4.2
1440.333	-1.2
1445.032	-4.2
1449.727	-5.2
1454.418	0.8
1459.104	1.8
1463.785	-5.2
1468.462	0.8
1473.134	0.8
1477.802	5.8
1482.465	1.8
1487.123	-4.2
1491.777	-2.2
1496.426	0.8
1501.071	-6.2
1505.711	-1.2
1510.347	0.8
1514.978	-4.2
1519.604	-0.2
1524.226	4.8
1528.844	-5.2
1533.457	-5.2
1538.065	-2.2
1542.669	-1.2
1547.269	1.8
1551.864	-0.2
1556.454	1.8
1561.041	3.8
1565.622	4.8
1570.199	-1.2
1574.772	0.8
1579.34	-2.2
1583.904	-0.2
1588.464	1.8
1593.019	-6.2
1597.569	-0.2
1602.115	-2.2
1606.657	-1.2
1611.195	1.8
1615.728	3.8
1620.256	2.8
1624.78	-0.2
1629.3	1.8
1633.816	-5.2
1638.327	-1.2
1642.834	-5.2
1647.336	-4.2
1651.834	-4.2
1656.328	-2.2
1660.817	-1.2
1665.302	1.8
1669.783	-3.2
1674.259	-5.2
1678.732	-3.2
1683.199	-3.2
1687.663	-0.2
1692.122	-1.2
1696.577	3.8
1701.028	-1.2
1705.474	4.8
1709.917	-5.2
1714.355	-3.2
1718.788	-3.2
1723.218	2.8
1727.643	0.8
1732.064	-1.2
1736.481	2.8
1740.893	-0.2
1745.301	-5.2
1749.705	-5.2
1754.105	-0.2
1758.501	-0.2
1762.893	-3.2
1767.28	0.8
1771.663	-2.2
1776.042	-3.2
1780.417	-7.2
1784.787	-3.2
1789.154	-4.2
1793.516	2.8
1797.874	-1.2
1802.228	3.8
1806.578	-0.2
1810.924	-1.2
1815.266	-5.2
1819.603	-4.2
1823.937	-1.2
1828.266	-1.2
1832.591	-1.2
1836.913	-1.2
1841.23	5.8
1845.543	-0.2
1849.852	-7.2
1854.156	-7.2
1858.457	-4.2
1862.754	-0.2
1867.047	-3.2
1871.335	-0.2
1875.62	0.8
1879.9	1.8
1884.177	0.8
1888.449	-6.2
1892.718	-5.2
1896.982	-4.2
1901.243	-4.2
1905.499	-0.2
1909.752	0.8
1914	-1.2
1918.245	0.8
1922.485	-7.2
1926.722	-7.2
1930.954	-0.2
1935.183	-2.2
1939.408	-3.2
1943.628	-1.2
1947.845	-6.2
1952.058	-1.2
1956.267	6.8
1960.472	-1.2
1964.673	-1.2
1968.87	-3.2
1973.063	3.8
1977.252	-4.2
1981.438	3.8
1985.619	-0.2
1989.797	-3.2
1993.971	0.8
1998.14	0.8
2002.306	-9.2
2006.469	-5.2
2010.627	-9.2
2014.781	0.8
2018.932	-6.2
2023.078	-1.2
2027.221	-1.2
2031.36	2.8
2035.495	3.8
2039.627	-0.2
2043.754	-8.2
2047.878	1.8
2051.998	-2.2
2056.114	5.8
2060.226	5.8
2064.334	2.8
2068.439	-2.2
2072.54	-3.2
2076.637	-3.2
2080.73	-5.2
2084.82	-3.2
2088.906	-3.2
2092.988	-2.2
2097.066	1.8
2101.14	-0.2
2105.211	0.8
2109.278	-4.2
2113.342	-4.2
2117.401	-2.2
2121.457	-3.2
2125.509	-5.2
2129.558	-4.2
2133.602	4.8
2137.643	0.8
2141.681	-2.2
2145.714	-11.2
2149.744	-5.2
2153.77	0.8
2157.793	0.8
2161.812	3.8
2165.827	-2.2
2169.838	1.8
2173.846	-3.2
2177.851	-4.2
2181.851	-12.2
2185.848	-7.2
2189.841	-2.2
2193.831	0.8
2197.817	2.8
2201.799	-8.2
2205.778	-3.2
2209.753	-5.2
2213.725	-4.2
2217.693	-2.2
2221.657	0.8
2225.618	2.8
2229.575	2.8
2233.529	-3.2
2237.479	-1.2
2241.425	-3.2
2245.368	-6.2
2249.307	-4.2
2253.243	-4.2
2257.175	-3.2
2261.104	1.8
2265.029	-2.2
2268.95	3.8
2272.868	-3.2
2276.783	-5.2
2280.694	-4.2
2284.601	1.8
2288.505	-0.2
2292.405	-3.2
2296.302	1.8
2300.195	0.8
2304.085	-2.2
2307.971	-4.2
2311.854	2.8
2315.734	-10.2
2319.609	-4.2
2323.482	2.8
2327.351	3.8
2331.216	-0.2
2335.078	4.8
2338.937	-2.2
2342.792	-0.2
2346.643	-2.2
2350.492	-5.2
2354.336	-2.2
2358.178	-1.2
2362.015	-2.2
2365.85	0.8
2369.681	-1.2
2373.508	0.8
2377.333	-4.2
2381.153	-5.2
2384.971	4.8
2388.785	1.8
2392.595	-1.2
2396.402	0.8
2400.206	4.8
2404.007	-0.2
2407.804	0.8
2411.597	-1.2
2415.388	-7.2
2419.174	-2.2
2422.958	-9.2
2426.738	3.8
2430.515	1.8
2434.289	1.8
2438.059	-9.2
2441.825	-8.2
2445.589	0.8
2449.349	-10.2
2453.106	0.8
2456.859	1.8
2460.61	2.8
2464.356	-0.2
2468.1	-1.2
2471.84	-4.2
2475.577	1.8
2479.311	-6.2
2483.041	-4.2
2486.768	-0.2
2490.492	-6.2
2494.213	3.8
2497.93	-4.2
2501.644	-3.2
2505.355	-6.2
2509.062	-8.2
2512.766	-1.2
2516.467	1.8
2520.165	-1.2
2523.859	1.8
2527.551	-2.2
2531.239	-8.2
2534.923	-6.2
2538.605	-1.2
2542.283	-1.2
2545.958	0.8
2549.63	2.8
2553.299	-2.2
2556.964	10.8
2560.626	-4.2
2564.285	-2.2
2567.941	3.8
2571.594	-0.2
2575.243	-0.2
2578.89	-1.2
2582.533	-0.2
2586.173	-0.2
2589.809	-1.2
2593.443	-0.2
2597.073	0.8
2600.701	-2.2
2604.325	-1.2
2607.946	-2.2
2611.564	3.8
2615.178	-4.2
2618.79	-5.2
2622.398	-0.2
2626.004	-6.2
2629.606	-5.2
2633.205	-2.2
2636.801	-5.2
2640.394	0.8
2643.983	2.8
2647.57	1.8
2651.153	1.8
2654.734	-5.2
2658.311	-6.2
2661.885	-4.2
2665.456	-2.2
2669.025	4.8
2672.589	1.8
2676.151	-0.2
2679.71	-4.2
2683.266	-10.2
2686.819	-4.2
2690.368	2.8
2693.915	-4.2
2697.458	-2.2
2700.999	1.8
2704.536	-4.2
2708.071	-4.2
2711.602	-3.2
2715.13	4.8
2718.656	12.8
2722.178	37.8
2725.697	1.8
2729.214	-5.2
2732.727	2.8
2736.237	-2.2
2739.744	-2.2
2743.249	-3.2
2746.75	-2.2
2750.248	2.8
2753.743	-0.2
2757.236	-2.2
2760.725	-0.2
2764.211	-5.2
2767.695	-4.2
2771.175	-10.2
2774.652	-3.2
2778.127	1.8
2781.598	-2.2
2785.067	0.8
2788.532	-0.2
2791.995	-4.2
2795.455	-3.2
2798.911	-5.2
2802.365	1.8
2805.816	6.8
2809.264	-4.2
2812.709	1.8
2816.151	1.8
2819.59	2.8
2823.026	-2.2
2826.46	-8.2
2829.89	-0.2
2833.318	-6.2
2836.742	8.8
2840.164	0.8
2843.583	2.8
2846.999	-1.2
2850.412	-4.2
2853.822	-1.2
2857.229	-6.2
2860.634	-2.2
2864.035	0.8
2867.434	-4.2
2870.83	-0.2
2874.223	9.8
2877.613	-3.2
2881	1.8
2884.385	4.8
2887.766	1.8
2891.145	-2.2
2894.521	4.8
2897.894	3.8
2901.264	-1.2
2904.631	-3.2
2907.996	-8.2
2911.358	-2.2
2914.717	2.8
2918.073	0.8
2921.426	1.8
2924.777	1.8
2928.124	0.8
2931.469	-6.2
2934.811	-1.2
2938.15	-5.2
2941.487	0.8
2944.821	-1.2
2948.152	-2.2
2951.48	-2.2
2954.805	3.8
2958.128	-4.2
2961.447	-6.2
2964.765	-0.2
2968.079	-2.2
2971.39	-1.2
2974.699	2.8
2978.005	-4.2
2981.308	-2.2
2984.609	-0.2
2987.907	-10.2
2991.202	-3.2
2994.494	-1.2
2997.784	-0.2
3001.07	6.8
3004.355	7.8
3007.636	-0.2
3010.915	-4.2
3014.191	-1.2
3017.464	-6.2
3020.734	-3.2
3024.002	-6.2
3027.267	4.8
3030.53	2.8
3033.789	-0.2
3037.046	-0.2
3040.301	-1.2
3043.552	-0.2
3046.801	-3.2
3050.048	-1.2
3053.291	-2.2
3056.532	2.8
3059.771	-0.2
3063.006	-1.2
3066.239	-3.2
3069.469	-5.2
3072.697	-5.2
3075.922	-4.2
3079.144	-3.2
3082.364	-0.2
3085.581	4.8
3088.795	-3.2
3092.007	-2.2
3095.216	-6.2
3098.423	-6.2
3101.627	-3.2
3104.828	-5.2
3108.026	-1.2
3111.222	1.8
3114.416	0.8
3117.607	2.8
3120.795	2.8
3123.98	-7.2
3127.163	-6.2
3130.344	5.8
3133.521	3.8
3136.696	1.8
3139.869	-0.2
3143.039	0.8
3146.206	-6.2
3149.371	-0.2
3152.533	-0.2
3155.693	-4.2
3158.85	-0.2
3162.005	-2.2
3165.157	0.8
3168.306	-6.2
3171.453	-0.2
3174.597	-1.2
3177.739	7.8
3180.878	-2.2
3184.014	1.8
3187.149	-8.2
3190.28	3.8
3193.409	-6.2
3196.536	-7.2
3199.659	-4.2
3202.781	1.8
3205.9	-2.2
3209.016	2.8
3212.13	-1.2
3215.241	1.8
3218.35	-8.2
3221.456	-5.2
3224.56	1.8
3227.661	1.8
3230.76	2.8
3233.856	-2.2
3236.95	1.8
3240.041	-3.2
3243.13	-8.2
3246.216	-3.2
3249.3	-7.2
3252.382	7.8
3255.46	4.8
3258.537	2.8
3261.611	-1.2
3264.682	-9.2
3267.751	-4.2
3270.818	-6.2
3273.882	-6.2
3276.943	2.8
3280.002	1.8
3283.059	0.8
3286.113	3.8
3289.165	4.8
3292.214	-0.2
3295.261	-3.2
3298.306	-0.2
3301.348	0.8
3304.387	1.8
3307.425	0.8
3310.459	-0.2
3313.492	-3.2
3316.521	-8.2
3319.549	-7.2
3322.574	-7.2
3325.597	-2.2
3328.617	3.8
3331.635	1.8
3334.65	-0.2
3337.663	-6.2
3340.674	-2.2
3343.682	-2.2
3346.688	-6.2
3349.691	-0.2
3352.692	-1.2
3355.691	5.8
3358.687	0.8
3361.681	1.8
3364.673	-0.2
3367.662	-2.2
3370.649	-5.2
3373.633	-6.2
3376.615	-7.2
3379.595	-7.2
3382.572	-2.2
3385.547	-1.2
3388.52	1.8
3391.49	0.8
3394.458	-2.2
3397.424	-2.2
3400.387	-1.2
3403.348	0.8
3406.307	-4.2
3409.263	-4.2
3412.217	2.8
3415.168	6.8
3418.118	-2.2
3421.065	-4.2
3424.009	-1.2
3426.951	-0.2
3429.891	-0.2
3432.829	-7.2
3435.764	-3.2
3438.697	-5.2
3441.628	-3.2
3444.557	0.8
3447.483	-2.2
3450.407	-6.2
3453.328	-3.2
3456.247	-1.2
3459.164	-5.2
3462.079	-5.2
3464.991	2.8
3467.902	-1.2
3470.809	3.8
3473.715	-4.2
3476.618	-3.2
3479.519	5.8
3482.418	-3.2
3485.315	-2.2
3488.209	-1.2
3491.101	-5.2
3493.99	-0.2
3496.878	-0.2
3499.763	-4.2
3502.646	-3.2
3505.527	-2.2
3508.405	4.8
3511.281	-3.2
3514.155	-1.2
3517.027	-1.2
3519.897	0.8
3522.764	-5.2
3525.629	-2.2
3528.492	0.8
3531.352	-2.2
3534.211	-4.2
3537.067	2.8
3539.921	-0.2
3542.773	-3.2
3545.622	-3.2
3548.469	-3.2
3551.315	-0.2
3554.157	-3.2
3556.998	-4.2
3559.837	-2.2
3562.673	0.8
3565.507	-1.2
3568.339	-5.2
3571.169	-11.2
3573.996	-1.2
3576.822	3.8
3579.645	4.8
3582.466	2.8
3585.285	-4.2
3588.101	4.8
3590.916	2.8
3593.728	-7.2
3596.538	0.8
3599.346	-1.2
3602.152	4.8
3604.956	2.8
3607.757	0.8
3610.556	1.8
3613.354	1.8
3616.149	-7.2
3618.942	-9.2
3621.732	-0.2
3624.521	-1.2
3627.307	1.8
3630.092	-0.2
3632.874	3.8
3635.654	-3.2
3638.432	-0.2
3641.208	1.8
3643.982	-3.2
3646.753	-2.2
3649.523	0.8
3652.29	-0.2
3655.055	1.8
3657.818	-1.2
3660.579	-3.2
3663.338	-0.2
3666.095	-2.2
3668.849	-5.2
3671.602	-0.2
3674.352	-1.2
3677.101	-3.2
3679.847	-0.2
3682.591	-4.2
3685.333	-2.2
3688.073	-1.2
3690.811	3.8
3693.547	-2.2
3696.281	0.8
3699.013	-2.2
3701.742	-4.2
3704.47	0.8
3707.195	1.8
3709.919	-6.2
3712.64	0.8
3715.359	-4.2
3718.076	3.8
3720.792	-4.2
3723.505	-0.2
3726.216	0.8
3728.925	-3.2
3731.632	0.8
3734.336	-11.2
3737.039	0.8
3739.74	1.8
3742.439	-10.2
3745.136	1.8
3747.83	-7.2
3750.523	-8.2
3753.213	-0.2
3755.902	-4.2
3758.589	-7.2
3761.273	2.8
3763.956	0.8
3766.636	-2.2
3769.315	-3.2
3771.991	-6.2
3774.665	-8.2
3777.338	1.8
3780.008	-0.2
3782.677	3.8
3785.343	-0.2
3788.007	-3.2
3790.67	-1.2
3793.33	1.8
3795.989	-2.2
3798.645	-0.2
3801.299	0.8
3803.952	-7.2
3806.602	4.8
3809.251	-6.2
3811.897	-8.2
3814.542	-7.2
3817.184	3.8
3819.825	-3.2
3822.463	1.8
3825.1	2.8
3827.735	0.8
3830.367	-6.2
3832.998	-1.2
3835.627	-0.2
3838.253	-2.2
3840.878	-2.2
3843.501	2.8
3846.122	4.8
3848.741	-9.2
3851.358	-1.2
3853.973	-4.2
3856.586	0.8
3859.197	-7.2
3861.806	-4.2
3864.414	-1.2
3867.019	0.8
3869.622	-3.2
3872.224	3.8
3874.823	-1.2
3877.421	-2.2
3880.016	2.8
3882.61	-0.2
3885.202	1.8
3887.792	-2.2
3890.38	-3.2
3892.966	-9.2
3895.55	-1.2
3898.132	-3.2
3900.713	-5.2
3903.291	-6.2
3905.868	-5.2
3908.442	0.8
3911.015	2.8
3913.586	1.8
3916.155	-7.2
3918.722	-4.2
3921.287	1.8
3923.85	-4.2
3926.411	-4.2
3928.971	1.8
3931.528	-4.2
3934.084	-0.2
3936.638	3.8
3939.19	-2.2
3941.74	-6.2
3944.288	-2.2
3946.834	0.8
3949.378	-1.2
3951.921	1.8
3954.462	-6.2
3957	-4.2
3959.537	-3.2
3962.072	-5.2
3964.606	0.8
3967.137	-0.2
3969.667	-0.2
3972.194	-7.2
3974.72	-4.2
3977.244	-4.2
3979.766	-2.2
3982.286	0.8
3984.805	-3.2
3987.321	-2.2
3989.836	6.8
3992.349	-5.2
3994.86	-1.2
3997.369	1.8
3999.877	-3.2
4002.382	4.8
4004.886	-6.2
4007.388	-0.2
4009.888	1.8
4012.386	-3.2
4014.883	-5.2
4017.377	-4.2
4019.87	-3.2
4022.361	-4.2
4024.85	-3.2
4027.338	-2.2
4029.823	-1.2
4032.307	-2.2
4034.789	-1.2
4037.269	-0.2
4039.747	2.8
4042.224	-1.2
4044.699	-5.2
4047.172	-1.2
4049.643	1.8
4052.112	0.8
4054.58	-0.2
4057.046	-6.2
4059.51	-2.2
4061.972	1.8
4064.432	-1.2
4066.891	-4.2
4069.348	-0.2
4071.803	-5.2
4074.256	-1.2
4076.708	2.8
4079.158	-0.2
4081.606	1.8
4084.052	-4.2
4086.497	-3.2
4088.939	3.8
4091.38	-2.2
4093.819	-0.2
4096.257	-0.2
4098.693	2.8
4101.127	0.8
4103.559	3.8
4105.989	-1.2
4108.418	-5.2
4110.845	-4.2
4113.27	-1.2
4115.694	-4.2
4118.115	-15.2
4120.535	0.8
4122.954	-1.2
4125.37	-2.2
4127.785	-4.2
4130.198	-3.2
4132.609	-0.2
4135.019	-2.2
4137.427	0.8
4139.833	0.8
4142.237	-1.2
