Data from 2018-2-8_dark_RamanShift_03.txt Node
Date: Mon Mar 12 13:08:59 IST 2018
User: aro
Spectrometer: QEPB0276
Trigger mode: 0
Integration Time (sec): 3.000000E1
Scans to average: 1
Electric dark correction enabled: true
Nonlinearity correction enabled: false
Boxcar width: 0
XAxis mode: Raman Shifts
Number of Pixels in Spectrum: 1044
>>>>>Begin Spectral Data<<<<<
160.701	2.8
166.742	-0.2
172.777	1.8
178.805	-7.2
184.826	-3.2
190.841	-1.2
196.849	0.8
202.85	3.8
208.845	-2.2
214.833	0.8
220.815	-2.2
226.789	4.8
232.758	-5.2
238.719	-5.2
244.674	-1.2
250.623	-3.2
256.565	0.8
262.5	3.8
268.429	0.8
274.351	1.8
280.267	0.8
286.176	-2.2
292.079	2.8
297.975	-3.2
303.865	2.8
309.748	1.8
315.625	1.8
321.495	6.8
327.359	3.8
333.217	-1.2
339.068	-3.2
344.912	4.8
350.751	2.8
356.583	4.8
362.408	5.8
368.227	6.8
374.04	6.8
379.847	6.8
385.647	-2.2
391.44	-3.2
397.228	-2.2
403.009	0.8
408.784	6.8
414.553	2.8
420.315	2.8
426.071	7.8
431.821	-3.2
437.565	-2.2
443.302	0.8
449.033	-0.2
454.758	-0.2
460.477	0.8
466.189	2.8
471.896	1.8
477.596	-2.2
483.29	-4.2
488.978	0.8
494.66	-0.2
500.335	6.8
506.005	7.8
511.668	1.8
517.325	-2.2
522.977	2.8
528.622	2.8
534.261	2.8
539.894	0.8
545.521	-4.2
551.141	1.8
556.756	-1.2
562.365	5.8
567.968	7.8
573.565	-1.2
579.155	-2.2
584.74	6.8
590.319	-0.2
595.892	-3.2
601.459	-2.2
607.02	-2.2
612.575	3.8
618.124	1.8
623.667	1.8
629.204	2.8
634.735	-6.2
640.261	-3.2
645.781	-3.2
651.294	4.8
656.802	4.8
662.304	-1.2
667.8	-4.2
673.29	-4.2
678.775	4.8
684.254	-6.2
689.726	-3.2
695.193	4.8
700.655	-1.2
706.11	-1.2
711.56	-1.2
717.004	-4.2
722.442	0.8
727.874	0.8
733.301	1.8
738.722	-0.2
744.137	-4.2
749.547	-2.2
754.951	-2.2
760.349	-0.2
765.741	-6.2
771.128	-0.2
776.509	2.8
781.885	5.8
787.254	-4.2
792.618	0.8
797.977	4.8
803.33	0.8
808.677	-5.2
814.019	2.8
819.355	5.8
824.686	5.8
830.011	-2.2
835.33	3.8
840.644	-0.2
845.952	0.8
851.255	1.8
856.552	0.8
861.844	-3.2
867.13	1.8
872.41	0.8
877.686	-2.2
882.955	-0.2
888.219	-1.2
893.478	7.8
898.731	0.8
903.979	0.8
909.221	-1.2
914.458	4.8
919.69	0.8
924.916	-2.2
930.136	-1.2
935.351	-2.2
940.561	2.8
945.766	2.8
950.965	9.8
956.158	5.8
961.347	1.8
966.529	2.8
971.707	-2.2
976.879	1.8
982.046	-7.2
987.208	-1.2
992.364	6.8
997.515	3.8
1002.66	5.8
1007.801	4.8
1012.936	-4.2
1018.066	-5.2
1023.19	-2.2
1028.309	-1.2
1033.423	3.8
1038.532	-0.2
1043.636	-4.2
1048.734	-2.2
1053.827	-1.2
1058.915	-2.2
1063.998	1.8
1069.075	2.8
1074.147	10.8
1079.214	0.8
1084.276	-2.2
1089.333	-2.2
1094.385	4.8
1099.431	3.8
1104.472	-10.2
1109.509	-3.2
1114.54	0.8
1119.565	6.8
1124.586	6.8
1129.602	0.8
1134.613	0.8
1139.618	-2.2
1144.619	2.8
1149.614	-1.2
1154.604	6.8
1159.589	1.8
1164.57	4.8
1169.545	0.8
1174.515	3.8
1179.48	0.8
1184.44	-2.2
1189.395	-5.2
1194.345	0.8
1199.29	-2.2
1204.23	2.8
1209.165	-0.2
1214.095	-0.2
1219.021	0.8
1223.941	-4.2
1228.856	2.8
1233.766	2.8
1238.672	5.8
1243.572	-2.2
1248.467	6.8
1253.358	-0.2
1258.244	4.8
1263.124	-2.2
1268	-6.2
1272.871	-3.2
1277.737	2.8
1282.599	0.8
1287.455	6.8
1292.306	-0.2
1297.153	2.8
1301.995	-0.2
1306.832	-1.2
1311.664	2.8
1316.491	0.8
1321.314	-5.2
1326.132	3.8
1330.945	7.8
1335.753	-5.2
1340.556	3.8
1345.354	0.8
1350.148	-2.2
1354.937	3.8
1359.722	-12.2
1364.501	2.8
1369.276	5.8
1374.046	1.8
1378.811	-1.2
1383.572	5.8
1388.327	-2.2
1393.079	0.8
1397.825	0.8
1402.567	-2.2
1407.304	0.8
1412.036	1.8
1416.764	-1.2
1421.487	1.8
1426.205	-2.2
1430.919	1.8
1435.628	-7.2
1440.333	-1.2
1445.032	1.8
1449.727	3.8
1454.418	3.8
1459.104	1.8
1463.785	-4.2
1468.462	8.8
1473.134	2.8
1477.802	1.8
1482.465	-0.2
1487.123	-0.2
1491.777	1.8
1496.426	4.8
1501.071	-7.2
1505.711	0.8
1510.347	-0.2
1514.978	-3.2
1519.604	-2.2
1524.226	2.8
1528.844	-0.2
1533.457	2.8
1538.065	-0.2
1542.669	-0.2
1547.269	1.8
1551.864	1.8
1556.454	3.8
1561.041	0.8
1565.622	3.8
1570.199	2.8
1574.772	2.8
1579.34	0.8
1583.904	2.8
1588.464	1.8
1593.019	-2.2
1597.569	0.8
1602.115	3.8
1606.657	-1.2
1611.195	4.8
1615.728	4.8
1620.256	-0.2
1624.78	5.8
1629.3	-1.2
1633.816	-1.2
1638.327	3.8
1642.834	-1.2
1647.336	-4.2
1651.834	-0.2
1656.328	-3.2
1660.817	-0.2
1665.302	2.8
1669.783	-5.2
1674.259	-6.2
1678.732	-1.2
1683.199	-1.2
1687.663	-4.2
1692.122	3.8
1696.577	3.8
1701.028	-2.2
1705.474	7.8
1709.917	0.8
1714.355	0.8
1718.788	-1.2
1723.218	2.8
1727.643	3.8
1732.064	-4.2
1736.481	1.8
1740.893	-5.2
1745.301	-0.2
1749.705	-2.2
1754.105	-1.2
1758.501	-2.2
1762.893	2.8
1767.28	3.8
1771.663	3.8
1776.042	-2.2
1780.417	-2.2
1784.787	-2.2
1789.154	-2.2
1793.516	7.8
1797.874	-1.2
1802.228	1.8
1806.578	1.8
1810.924	-3.2
1815.266	-3.2
1819.603	0.8
1823.937	4.8
1828.266	-0.2
1832.591	0.8
1836.913	-0.2
1841.23	4.8
1845.543	1.8
1849.852	-2.2
1854.156	-7.2
1858.457	6.8
1862.754	-0.2
1867.047	-1.2
1871.335	-3.2
1875.62	2.8
1879.9	-0.2
1884.177	-0.2
1888.449	3.8
1892.718	4.8
1896.982	2.8
1901.243	3.8
1905.499	0.8
1909.752	0.8
1914	0.8
1918.245	1.8
1922.485	-6.2
1926.722	-1.2
1930.954	-1.2
1935.183	1.8
1939.408	-1.2
1943.628	1.8
1947.845	-1.2
1952.058	-0.2
1956.267	4.8
1960.472	3.8
1964.673	2.8
1968.87	-2.2
1973.063	-1.2
1977.252	-5.2
1981.438	2.8
1985.619	-0.2
1989.797	-5.2
1993.971	2.8
1998.14	8.8
2002.306	-5.2
2006.469	3.8
2010.627	-1.2
2014.781	4.8
2018.932	-0.2
2023.078	12.8
2027.221	10.8
2031.36	10.8
2035.495	9.8
2039.627	6.8
2043.754	-3.2
2047.878	2.8
2051.998	-2.2
2056.114	1.8
2060.226	4.8
2064.334	2.8
2068.439	3.8
2072.54	0.8
2076.637	1.8
2080.73	-4.2
2084.82	-6.2
2088.906	1.8
2092.988	-0.2
2097.066	6.8
2101.14	3.8
2105.211	3.8
2109.278	-1.2
2113.342	-0.2
2117.401	-5.2
2121.457	0.8
2125.509	-1.2
2129.558	-2.2
2133.602	4.8
2137.643	4.8
2141.681	-0.2
2145.714	-1.2
2149.744	-0.2
2153.77	-1.2
2157.793	1.8
2161.812	7.8
2165.827	1.8
2169.838	3.8
2173.846	-0.2
2177.851	-3.2
2181.851	-10.2
2185.848	-6.2
2189.841	-0.2
2193.831	0.8
2197.817	2.8
2201.799	-1.2
2205.778	2.8
2209.753	-6.2
2213.725	-3.2
2217.693	0.8
2221.657	-2.2
2225.618	0.8
2229.575	3.8
2233.529	3.8
2237.479	4.8
2241.425	0.8
2245.368	-6.2
2249.307	-5.2
2253.243	-2.2
2257.175	-1.2
2261.104	2.8
2265.029	2.8
2268.95	3.8
2272.868	2.8
2276.783	-6.2
2280.694	-2.2
2284.601	4.8
2288.505	3.8
2292.405	1.8
2296.302	5.8
2300.195	4.8
2304.085	-3.2
2307.971	-1.2
2311.854	1.8
2315.734	-5.2
2319.609	-3.2
2323.482	5.8
2327.351	3.8
2331.216	0.8
2335.078	1.8
2338.937	-0.2
2342.792	2.8
2346.643	-0.2
2350.492	2.8
2354.336	4.8
2358.178	-1.2
2362.015	2.8
2365.85	5.8
2369.681	-1.2
2373.508	-1.2
2377.333	-8.2
2381.153	-0.2
2384.971	6.8
2388.785	0.8
2392.595	-0.2
2396.402	-0.2
2400.206	1.8
2404.007	1.8
2407.804	1.8
2411.597	0.8
2415.388	-2.2
2419.174	4.8
2422.958	-2.2
2426.738	0.8
2430.515	0.8
2434.289	-1.2
2438.059	-2.2
2441.825	-2.2
2445.589	6.8
2449.349	-0.2
2453.106	3.8
2456.859	6.8
2460.61	7.8
2464.356	-1.2
2468.1	-2.2
2471.84	-0.2
2475.577	2.8
2479.311	-2.2
2483.041	-4.2
2486.768	3.8
2490.492	-1.2
2494.213	4.8
2497.93	-0.2
2501.644	1.8
2505.355	-3.2
2509.062	-6.2
2512.766	0.8
2516.467	-2.2
2520.165	-2.2
2523.859	0.8
2527.551	-0.2
2531.239	-1.2
2534.923	-3.2
2538.605	-1.2
2542.283	-3.2
2545.958	-2.2
2549.63	3.8
2553.299	-1.2
2556.964	9.8
2560.626	2.8
2564.285	2.8
2567.941	-3.2
2571.594	3.8
2575.243	1.8
2578.89	-1.2
2582.533	2.8
2586.173	0.8
2589.809	0.8
2593.443	3.8
2597.073	3.8
2600.701	-2.2
2604.325	-4.2
2607.946	4.8
2611.564	0.8
2615.178	4.8
2618.79	2.8
2622.398	7.8
2626.004	-0.2
2629.606	-4.2
2633.205	-3.2
2636.801	-1.2
2640.394	6.8
2643.983	4.8
2647.57	5.8
2651.153	4.8
2654.734	0.8
2658.311	-3.2
2661.885	-3.2
2665.456	3.8
2669.025	2.8
2672.589	3.8
2676.151	7.8
2679.71	0.8
2683.266	1.8
2686.819	0.8
2690.368	1.8
2693.915	-1.2
2697.458	-0.2
2700.999	2.8
2704.536	3.8
2708.071	-1.2
2711.602	0.8
2715.13	2.8
2718.656	-0.2
2722.178	1.8
2725.697	0.8
2729.214	-4.2
2732.727	8.8
2736.237	3.8
2739.744	2.8
2743.249	-2.2
2746.75	1.8
2750.248	1.8
2753.743	0.8
2757.236	4.8
2760.725	11.8
2764.211	3.8
2767.695	1.8
2771.175	-3.2
2774.652	-2.2
2778.127	-4.2
2781.598	-3.2
2785.067	7.8
2788.532	1.8
2791.995	3.8
2795.455	7.8
2798.911	-3.2
2802.365	0.8
2805.816	9.8
2809.264	-2.2
2812.709	5.8
2816.151	4.8
2819.59	3.8
2823.026	4.8
2826.46	-1.2
2829.89	5.8
2833.318	-4.2
2836.742	3.8
2840.164	-3.2
2843.583	-4.2
2846.999	4.8
2850.412	-2.2
2853.822	0.8
2857.229	-6.2
2860.634	3.8
2864.035	2.8
2867.434	-0.2
2870.83	-2.2
2874.223	10.8
2877.613	0.8
2881	6.8
2884.385	3.8
2887.766	1.8
2891.145	-5.2
2894.521	-1.2
2897.894	1.8
2901.264	0.8
2904.631	-4.2
2907.996	3.8
2911.358	3.8
2914.717	2.8
2918.073	7.8
2921.426	3.8
2924.777	2.8
2928.124	-1.2
2931.469	-4.2
2934.811	0.8
2938.15	-4.2
2941.487	3.8
2944.821	-0.2
2948.152	-2.2
2951.48	1.8
2954.805	1.8
2958.128	-7.2
2961.447	-7.2
2964.765	-3.2
2968.079	-2.2
2971.39	-2.2
2974.699	-0.2
2978.005	-0.2
2981.308	1.8
2984.609	2.8
2987.907	-6.2
2991.202	2.8
2994.494	-1.2
2997.784	-1.2
3001.07	4.8
3004.355	5.8
3007.636	4.8
3010.915	0.8
3014.191	-2.2
3017.464	3.8
3020.734	-1.2
3024.002	-5.2
3027.267	5.8
3030.53	0.8
3033.789	0.8
3037.046	3.8
3040.301	-1.2
3043.552	-0.2
3046.801	0.8
3050.048	2.8
3053.291	0.8
3056.532	0.8
3059.771	2.8
3063.006	-2.2
3066.239	0.8
3069.469	-1.2
3072.697	-3.2
3075.922	2.8
3079.144	0.8
3082.364	2.8
3085.581	3.8
3088.795	-2.2
3092.007	-4.2
3095.216	-6.2
3098.423	-5.2
3101.627	2.8
3104.828	2.8
3108.026	-2.2
3111.222	10.8
3114.416	1.8
3117.607	1.8
3120.795	0.8
3123.98	-3.2
3127.163	-4.2
3130.344	6.8
3133.521	-1.2
3136.696	5.8
3139.869	1.8
3143.039	-3.2
3146.206	-6.2
3149.371	-4.2
3152.533	1.8
3155.693	1.8
3158.85	4.8
3162.005	6.8
3165.157	6.8
3168.306	-3.2
3171.453	-3.2
3174.597	0.8
3177.739	0.8
3180.878	4.8
3184.014	7.8
3187.149	0.8
3190.28	0.8
3193.409	-2.2
3196.536	-7.2
3199.659	-0.2
3202.781	1.8
3205.9	2.8
3209.016	6.8
3212.13	3.8
3215.241	-0.2
3218.35	-1.2
3221.456	-1.2
3224.56	1.8
3227.661	-2.2
3230.76	2.8
3233.856	2.8
3236.95	2.8
3240.041	5.8
3243.13	-2.2
3246.216	-2.2
3249.3	-4.2
3252.382	2.8
3255.46	2.8
3258.537	5.8
3261.611	3.8
3264.682	-3.2
3267.751	2.8
3270.818	-1.2
3273.882	-7.2
3276.943	0.8
3280.002	3.8
3283.059	5.8
3286.113	5.8
3289.165	6.8
3292.214	5.8
3295.261	-1.2
3298.306	-3.2
3301.348	-2.2
3304.387	-1.2
3307.425	4.8
3310.459	4.8
3313.492	-0.2
3316.521	0.8
3319.549	-0.2
3322.574	0.8
3325.597	-2.2
3328.617	4.8
3331.635	-0.2
3334.65	5.8
3337.663	-3.2
3340.674	-1.2
3343.682	1.8
3346.688	-6.2
3349.691	1.8
3352.692	-1.2
3355.691	5.8
3358.687	-0.2
3361.681	6.8
3364.673	3.8
3367.662	1.8
3370.649	-3.2
3373.633	-4.2
3376.615	-3.2
3379.595	-2.2
3382.572	3.8
3385.547	5.8
3388.52	4.8
3391.49	-1.2
3394.458	0.8
3397.424	-1.2
3400.387	-1.2
3403.348	7.8
3406.307	-1.2
3409.263	1.8
3412.217	1.8
3415.168	5.8
3418.118	1.8
3421.065	-5.2
3424.009	0.8
3426.951	-0.2
3429.891	2.8
3432.829	0.8
3435.764	-0.2
3438.697	0.8
3441.628	-1.2
3444.557	-2.2
3447.483	0.8
3450.407	-6.2
3453.328	2.8
3456.247	0.8
3459.164	-2.2
3462.079	-8.2
3464.991	-3.2
3467.902	0.8
3470.809	5.8
3473.715	-1.2
3476.618	-1.2
3479.519	0.8
3482.418	1.8
3485.315	-1.2
3488.209	-3.2
3491.101	-0.2
3493.99	4.8
3496.878	6.8
3499.763	-0.2
3502.646	0.8
3505.527	-4.2
3508.405	3.8
3511.281	4.8
3514.155	4.8
3517.027	1.8
3519.897	1.8
3522.764	0.8
3525.629	3.8
3528.492	-1.2
3531.352	-1.2
3534.211	-5.2
3537.067	-2.2
3539.921	1.8
3542.773	5.8
3545.622	0.8
3548.469	-0.2
3551.315	5.8
3554.157	1.8
3556.998	0.8
3559.837	-0.2
3562.673	-0.2
3565.507	3.8
3568.339	5.8
3571.169	-3.2
3573.996	-0.2
3576.822	0.8
3579.645	6.8
3582.466	0.8
3585.285	1.8
3588.101	3.8
3590.916	-0.2
3593.728	-7.2
3596.538	-1.2
3599.346	1.8
3602.152	-1.2
3604.956	1.8
3607.757	9.8
3610.556	3.8
3613.354	6.8
3616.149	0.8
3618.942	2.8
3621.732	-1.2
3624.521	-1.2
3627.307	1.8
3630.092	-0.2
3632.874	2.8
3635.654	-5.2
3638.432	5.8
3641.208	4.8
3643.982	-2.2
3646.753	1.8
3649.523	-4.2
3652.29	4.8
3655.055	0.8
3657.818	3.8
3660.579	4.8
3663.338	2.8
3666.095	2.8
3668.849	0.8
3671.602	-2.2
3674.352	3.8
3677.101	-3.2
3679.847	-2.2
3682.591	1.8
3685.333	5.8
3688.073	5.8
3690.811	3.8
3693.547	-3.2
3696.281	-0.2
3699.013	3.8
3701.742	-1.2
3704.47	2.8
3707.195	5.8
3709.919	4.8
3712.64	0.8
3715.359	-2.2
3718.076	-1.2
3720.792	-5.2
3723.505	-7.2
3726.216	-2.2
3728.925	-0.2
3731.632	3.8
3734.336	-4.2
3737.039	0.8
3739.74	-2.2
3742.439	-5.2
3745.136	3.8
3747.83	-3.2
3750.523	3.8
3753.213	3.8
3755.902	1.8
3758.589	-4.2
3761.273	-1.2
3763.956	3.8
3766.636	-6.2
3769.315	0.8
3771.991	4.8
3774.665	-0.2
3777.338	9.8
3780.008	5.8
3782.677	0.8
3785.343	0.8
3788.007	-3.2
3790.67	-2.2
3793.33	5.8
3795.989	-0.2
3798.645	6.8
3801.299	7.8
3803.952	-3.2
3806.602	-1.2
3809.251	0.8
3811.897	-6.2
3814.542	-6.2
3817.184	3.8
3819.825	1.8
3822.463	-1.2
3825.1	1.8
3827.735	-1.2
3830.367	0.8
3832.998	-4.2
3835.627	-1.2
3838.253	3.8
3840.878	0.8
3843.501	3.8
3846.122	1.8
3848.741	-3.2
3851.358	5.8
3853.973	-0.2
3856.586	3.8
3859.197	-5.2
3861.806	0.8
3864.414	-4.2
3867.019	-0.2
3869.622	-2.2
3872.224	6.8
3874.823	-0.2
3877.421	-7.2
3880.016	-1.2
3882.61	3.8
3885.202	-0.2
3887.792	0.8
3890.38	-2.2
3892.966	-11.2
3895.55	-1.2
3898.132	1.8
3900.713	0.8
3903.291	-2.2
3905.868	-8.2
3908.442	3.8
3911.015	1.8
3913.586	-0.2
3916.155	-1.2
3918.722	-0.2
3921.287	6.8
3923.85	0.8
3926.411	-4.2
3928.971	-2.2
3931.528	-0.2
3934.084	3.8
3936.638	7.8
3939.19	2.8
3941.74	-3.2
3944.288	-0.2
3946.834	3.8
3949.378	-0.2
3951.921	-2.2
3954.462	-5.2
3957	0.8
3959.537	1.8
3962.072	-5.2
3964.606	5.8
3967.137	-2.2
3969.667	2.8
3972.194	-6.2
3974.72	3.8
3977.244	-4.2
3979.766	1.8
3982.286	0.8
3984.805	2.8
3987.321	3.8
3989.836	6.8
3992.349	-3.2
3994.86	-7.2
3997.369	0.8
3999.877	4.8
4002.382	5.8
4004.886	-0.2
4007.388	4.8
4009.888	0.8
4012.386	-2.2
4014.883	-4.2
4017.377	0.8
4019.87	1.8
4022.361	-3.2
4024.85	1.8
4027.338	3.8
4029.823	4.8
4032.307	4.8
4034.789	-5.2
4037.269	-0.2
4039.747	1.8
4042.224	0.8
4044.699	1.8
4047.172	5.8
4049.643	5.8
4052.112	3.8
4054.58	1.8
4057.046	-1.2
4059.51	-3.2
4061.972	-2.2
4064.432	2.8
4066.891	0.8
4069.348	3.8
4071.803	-2.2
4074.256	-4.2
4076.708	-2.2
4079.158	-4.2
4081.606	3.8
4084.052	0.8
4086.497	-1.2
4088.939	2.8
4091.38	4.8
4093.819	-1.2
4096.257	-1.2
4098.693	-0.2
4101.127	0.8
4103.559	4.8
4105.989	-0.2
4108.418	3.8
4110.845	-1.2
4113.27	0.8
4115.694	-3.2
4118.115	-5.2
4120.535	-4.2
4122.954	-6.2
4125.37	0.8
4127.785	-2.2
4130.198	-0.2
4132.609	0.8
4135.019	1.8
4137.427	1.8
4139.833	-1.2
4142.237	0.8
