Data from 2018-2-8_conc=5_n=10_RamanShift_03.txt Node
Date: Mon Mar 12 16:21:28 IST 2018
User: aro
Spectrometer: QEPB0276
Trigger mode: 0
Integration Time (sec): 3.000000E1
Scans to average: 1
Electric dark correction enabled: true
Nonlinearity correction enabled: false
Boxcar width: 0
XAxis mode: Raman Shifts
Number of Pixels in Spectrum: 1044
>>>>>Begin Spectral Data<<<<<
160.701	19
166.742	41
172.777	116
178.805	346
184.826	915
190.841	1990
196.849	3294
202.85	4319
208.845	4696
214.833	4724
220.815	4640
226.789	4653
232.758	4647
238.719	4626
244.674	4615
250.623	4561
256.565	4515
262.5	4445
268.429	4382
274.351	4352
280.267	4339
286.176	4327
292.079	4266
297.975	4279
303.865	4250
309.748	4268
315.625	4239
321.495	4222
327.359	4216
333.217	4242
339.068	4261
344.912	4258
350.751	4279
356.583	4277
362.408	4256
368.227	4288
374.04	4297
379.847	4326
385.647	4307
391.44	4341
397.228	4368
403.009	4405
408.784	4393
414.553	4424
420.315	4439
426.071	4467
431.821	4429
437.565	4429
443.302	4422
449.033	4428
454.758	4366
460.477	4374
466.189	4352
471.896	4321
477.596	4284
483.29	4269
488.978	4277
494.66	4260
500.335	4177
506.005	4090
511.668	3930
517.325	3790
522.977	3665
528.622	3612
534.261	3563
539.894	3521
545.521	3468
551.141	3453
556.756	3401
562.365	3372
567.968	3374
573.565	3325
579.155	3316
584.74	3309
590.319	3300
595.892	3295
601.459	3266
607.02	3312
612.575	3256
618.124	3221
623.667	3194
629.204	3160
634.735	3134
640.261	3116
645.781	3101
651.294	3090
656.802	3097
662.304	3065
667.8	3061
673.29	3050
678.775	3058
684.254	3031
689.726	3010
695.193	3031
700.655	2995
706.11	2996
711.56	2955
717.004	2942
722.442	2926
727.874	2901
733.301	2907
738.722	2880
744.137	2901
749.547	2866
754.951	2879
760.349	2890
765.741	2876
771.128	2900
776.509	2932
781.885	2925
787.254	2942
792.618	2955
797.977	2930
803.33	2916
808.677	2905
814.019	2896
819.355	2867
824.686	2862
830.011	2818
835.33	2810
840.644	2803
845.952	2815
851.255	2794
856.552	2776
861.844	2753
867.13	2753
872.41	2738
877.686	2699
882.955	2693
888.219	2655
893.478	2612
898.731	2600
903.979	2538
909.221	2563
914.458	2517
919.69	2526
924.916	2520
930.136	2562
935.351	2553
940.561	2534
945.766	2559
950.965	2535
956.158	2508
961.347	2477
966.529	2465
971.707	2424
976.879	2372
982.046	2345
987.208	2341
992.364	2341
997.515	2352
1002.66	2391
1007.801	2388
1012.936	2416
1018.066	2437
1023.19	2430
1028.309	2431
1033.423	2433
1038.532	2438
1043.636	2401
1048.734	2371
1053.827	2350
1058.915	2325
1063.998	2310
1069.075	2293
1074.147	2306
1079.214	2297
1084.276	2301
1089.333	2328
1094.385	2328
1099.431	2339
1104.472	2324
1109.509	2291
1114.54	2258
1119.565	2241
1124.586	2217
1129.602	2178
1134.613	2180
1139.618	2167
1144.619	2151
1149.614	2163
1154.604	2183
1159.589	2172
1164.57	2188
1169.545	2171
1174.515	2181
1179.48	2172
1184.44	2156
1189.395	2147
1194.345	2118
1199.29	2106
1204.23	2105
1209.165	2128
1214.095	2122
1219.021	2132
1223.941	2136
1228.856	2153
1233.766	2154
1238.672	2170
1243.572	2168
1248.467	2148
1253.358	2109
1258.244	2095
1263.124	2055
1268	2020
1272.871	1998
1277.737	2001
1282.599	1972
1287.455	1979
1292.306	1982
1297.153	1986
1301.995	1974
1306.832	1999
1311.664	2038
1316.491	2015
1321.314	2000
1326.132	2004
1330.945	1985
1335.753	1934
1340.556	1932
1345.354	1900
1350.148	1874
1354.937	1847
1359.722	1818
1364.501	1782
1369.276	1756
1374.046	1731
1378.811	1686
1383.572	1681
1388.327	1694
1393.079	1694
1397.825	1697
1402.567	1711
1407.304	1686
1412.036	1687
1416.764	1694
1421.487	1700
1426.205	1717
1430.919	1713
1435.628	1733
1440.333	1719
1445.032	1732
1449.727	1765
1454.418	1758
1459.104	1776
1463.785	1743
1468.462	1725
1473.134	1676
1477.802	1663
1482.465	1616
1487.123	1589
1491.777	1566
1496.426	1565
1501.071	1543
1505.711	1527
1510.347	1536
1514.978	1534
1519.604	1535
1524.226	1528
1528.844	1507
1533.457	1515
1538.065	1496
1542.669	1496
1547.269	1488
1551.864	1483
1556.454	1504
1561.041	1539
1565.622	1527
1570.199	1513
1574.772	1533
1579.34	1565
1583.904	1583
1588.464	1579
1593.019	1584
1597.569	1603
1602.115	1609
1606.657	1576
1611.195	1586
1615.728	1587
1620.256	1585
1624.78	1585
1629.3	1580
1633.816	1578
1638.327	1611
1642.834	1612
1647.336	1605
1651.834	1620
1656.328	1606
1660.817	1622
1665.302	1585
1669.783	1584
1674.259	1525
1678.732	1494
1683.199	1464
1687.663	1429
1692.122	1378
1696.577	1324
1701.028	1262
1705.474	1233
1709.917	1191
1714.355	1170
1718.788	1162
1723.218	1158
1727.643	1151
1732.064	1140
1736.481	1160
1740.893	1126
1745.301	1087
1749.705	1078
1754.105	1046
1758.501	1020
1762.893	1017
1767.28	1016
1771.663	991
1776.042	998
1780.417	981
1784.787	974
1789.154	965
1793.516	959
1797.874	938
1802.228	923
1806.578	917
1810.924	920
1815.266	899
1819.603	900
1823.937	890
1828.266	886
1832.591	896
1836.913	895
1841.23	893
1845.543	891
1849.852	903
1854.156	893
1858.457	893
1862.754	893
1867.047	892
1871.335	891
1875.62	901
1879.9	897
1884.177	873
1888.449	883
1892.718	859
1896.982	869
1901.243	831
1905.499	838
1909.752	835
1914	826
1918.245	817
1922.485	792
1926.722	794
1930.954	793
1935.183	797
1939.408	785
1943.628	790
1947.845	769
1952.058	773
1956.267	771
1960.472	761
1964.673	737
1968.87	736
1973.063	738
1977.252	728
1981.438	738
1985.619	716
1989.797	717
1993.971	724
1998.14	728
2002.306	716
2006.469	738
2010.627	738
2014.781	739
2018.932	737
2023.078	732
2027.221	718
2031.36	713
2035.495	705
2039.627	699
2043.754	675
2047.878	672
2051.998	681
2056.114	678
2060.226	681
2064.334	685
2068.439	678
2072.54	667
2076.637	676
2080.73	659
2084.82	670
2088.906	671
2092.988	660
2097.066	652
2101.14	635
2105.211	635
2109.278	621
2113.342	612
2117.401	609
2121.457	605
2125.509	593
2129.558	607
2133.602	595
2137.643	591
2141.681	592
2145.714	578
2149.744	587
2153.77	589
2157.793	589
2161.812	596
2165.827	575
2169.838	577
2173.846	557
2177.851	544
2181.851	549
2185.848	546
2189.841	540
2193.831	533
2197.817	520
2201.799	521
2205.778	525
2209.753	519
2213.725	514
2217.693	518
2221.657	520
2225.618	499
2229.575	515
2233.529	502
2237.479	502
2241.425	504
2245.368	482
2249.307	484
2253.243	462
2257.175	469
2261.104	458
2265.029	457
2268.95	452
2272.868	443
2276.783	433
2280.694	431
2284.601	430
2288.505	413
2292.405	409
2296.302	407
2300.195	410
2304.085	409
2307.971	388
2311.854	392
2315.734	384
2319.609	378
2323.482	385
2327.351	379
2331.216	382
2335.078	407
2338.937	387
2342.792	371
2346.643	363
2350.492	367
2354.336	359
2358.178	370
2362.015	357
2365.85	368
2369.681	360
2373.508	374
2377.333	363
2381.153	363
2384.971	372
2388.785	360
2392.595	353
2396.402	357
2400.206	340
2404.007	356
2407.804	357
2411.597	349
2415.388	337
2419.174	331
2422.958	328
2426.738	338
2430.515	344
2434.289	331
2438.059	332
2441.825	321
2445.589	323
2449.349	313
2453.106	307
2456.859	310
2460.61	322
2464.356	299
2468.1	312
2471.84	297
2475.577	304
2479.311	293
2483.041	284
2486.768	298
2490.492	294
2494.213	299
2497.93	288
2501.644	284
2505.355	276
2509.062	274
2512.766	284
2516.467	273
2520.165	275
2523.859	268
2527.551	267
2531.239	250
2534.923	250
2538.605	249
2542.283	241
2545.958	248
2549.63	251
2553.299	237
2556.964	244
2560.626	239
2564.285	237
2567.941	232
2571.594	229
2575.243	236
2578.89	227
2582.533	225
2586.173	218
2589.809	211
2593.443	215
2597.073	203
2600.701	203
2604.325	198
2607.946	206
2611.564	207
2615.178	203
2618.79	200
2622.398	206
2626.004	198
2629.606	188
2633.205	201
2636.801	197
2640.394	186
2643.983	185
2647.57	187
2651.153	186
2654.734	174
2658.311	172
2661.885	175
2665.456	180
2669.025	168
2672.589	177
2676.151	174
2679.71	172
2683.266	157
2686.819	165
2690.368	160
2693.915	156
2697.458	154
2700.999	157
2704.536	150
2708.071	138
2711.602	144
2715.13	154
2718.656	137
2722.178	138
2725.697	137
2729.214	125
2732.727	140
2736.237	142
2739.744	127
2743.249	127
2746.75	135
2750.248	128
2753.743	128
2757.236	108
2760.725	112
2764.211	112
2767.695	110
2771.175	102
2774.652	96
2778.127	111
2781.598	110
2785.067	114
2788.532	110
2791.995	100
2795.455	113
2798.911	114
2802.365	112
2805.816	111
2809.264	110
2812.709	114
2816.151	103
2819.59	118
2823.026	108
2826.46	118
2829.89	107
2833.318	101
2836.742	104
2840.164	104
2843.583	111
2846.999	112
2850.412	122
2853.822	118
2857.229	115
2860.634	120
2864.035	124
2867.434	117
2870.83	131
2874.223	144
2877.613	142
2881	152
2884.385	156
2887.766	142
2891.145	135
2894.521	148
2897.894	152
2901.264	149
2904.631	150
2907.996	153
2911.358	147
2914.717	147
2918.073	154
2921.426	155
2924.777	167
2928.124	174
2931.469	173
2934.811	184
2938.15	182
2941.487	187
2944.821	184
2948.152	185
2951.48	193
2954.805	183
2958.128	191
2961.447	172
2964.765	181
2968.079	187
2971.39	178
2974.699	188
2978.005	186
2981.308	194
2984.609	184
2987.907	174
2991.202	189
2994.494	195
2997.784	191
3001.07	198
3004.355	205
3007.636	208
3010.915	204
3014.191	206
3017.464	209
3020.734	217
3024.002	216
3027.267	222
3030.53	225
3033.789	230
3037.046	237
3040.301	228
3043.552	243
3046.801	257
3050.048	266
3053.291	271
3056.532	268
3059.771	289
3063.006	291
3066.239	298
3069.469	313
3072.697	327
3075.922	345
3079.144	350
3082.364	346
3085.581	359
3088.795	360
3092.007	366
3095.216	377
3098.423	391
3101.627	412
3104.828	415
3108.026	410
3111.222	418
3114.416	424
3117.607	442
3120.795	450
3123.98	454
3127.163	483
3130.344	490
3133.521	496
3136.696	508
3139.869	520
3143.039	530
3146.206	534
3149.371	539
3152.533	547
3155.693	550
3158.85	554
3162.005	550
3165.157	554
3168.306	561
3171.453	565
3174.597	563
3177.739	572
3180.878	565
3184.014	581
3187.149	580
3190.28	573
3193.409	565
3196.536	575
3199.659	581
3202.781	593
3205.9	586
3209.016	589
3212.13	600
3215.241	593
3218.35	577
3221.456	574
3224.56	558
3227.661	561
3230.76	555
3233.856	534
3236.95	535
3240.041	536
3243.13	516
3246.216	511
3249.3	500
3252.382	507
3255.46	508
3258.537	498
3261.611	489
3264.682	477
3267.751	476
3270.818	479
3273.882	461
3276.943	470
3280.002	477
3283.059	472
3286.113	453
3289.165	459
3292.214	462
3295.261	439
3298.306	436
3301.348	439
3304.387	426
3307.425	419
3310.459	414
3313.492	415
3316.521	413
3319.549	408
3322.574	411
3325.597	395
3328.617	397
3331.635	397
3334.65	395
3337.663	386
3340.674	394
3343.682	394
3346.688	397
3349.691	388
3352.692	386
3355.691	391
3358.687	378
3361.681	380
3364.673	381
3367.662	370
3370.649	357
3373.633	352
3376.615	354
3379.595	355
3382.572	342
3385.547	338
3388.52	326
3391.49	324
3394.458	320
3397.424	310
3400.387	312
3403.348	307
3406.307	303
3409.263	303
3412.217	292
3415.168	288
3418.118	284
3421.065	281
3424.009	273
3426.951	270
3429.891	260
3432.829	259
3435.764	244
3438.697	245
3441.628	235
3444.557	233
3447.483	224
3450.407	213
3453.328	208
3456.247	195
3459.164	195
3462.079	183
3464.991	169
3467.902	166
3470.809	164
3473.715	147
3476.618	149
3479.519	139
3482.418	129
3485.315	126
3488.209	118
3491.101	111
3493.99	113
3496.878	103
3499.763	99
3502.646	93
3505.527	79
3508.405	85
3511.281	67
3514.155	71
3517.027	63
3519.897	53
3522.764	48
3525.629	40
3528.492	38
3531.352	31
3534.211	23
3537.067	18
3539.921	16
3542.773	11
3545.622	-1
3548.469	-1
3551.315	-4
3554.157	-11
3556.998	-18
3559.837	-16
3562.673	-16
3565.507	-20
3568.339	-25
3571.169	-35
3573.996	-28
3576.822	-40
3579.645	-38
3582.466	-38
3585.285	-43
3588.101	-34
3590.916	-45
3593.728	-51
3596.538	-52
3599.346	-55
3602.152	-57
3604.956	-60
3607.757	-59
3610.556	-63
3613.354	-60
3616.149	-71
3618.942	-72
3621.732	-66
3624.521	-78
3627.307	-70
3630.092	-75
3632.874	-70
3635.654	-75
3638.432	-77
3641.208	-83
3643.982	-87
3646.753	-85
3649.523	-87
3652.29	-86
3655.055	-87
3657.818	-84
3660.579	-86
3663.338	-89
3666.095	-95
3668.849	-97
3671.602	-91
3674.352	-98
3677.101	-102
3679.847	-101
3682.591	-102
3685.333	-97
3688.073	-104
3690.811	-106
3693.547	-106
3696.281	-109
3699.013	-108
3701.742	-113
3704.47	-107
3707.195	-108
3709.919	-113
3712.64	-106
3715.359	-114
3718.076	-114
3720.792	-111
3723.505	-114
3726.216	-111
3728.925	-116
3731.632	-113
3734.336	-123
3737.039	-117
3739.74	-118
3742.439	-121
3745.136	-111
3747.83	-118
3750.523	-118
3753.213	-121
3755.902	-118
3758.589	-121
3761.273	-117
3763.956	-113
3766.636	-117
3769.315	-111
3771.991	-115
3774.665	-125
3777.338	-113
3780.008	-121
3782.677	-123
3785.343	-119
3788.007	-115
3790.67	-119
3793.33	-119
3795.989	-120
3798.645	-118
3801.299	-122
3803.952	-123
3806.602	-120
3809.251	-126
3811.897	-125
3814.542	-126
3817.184	-114
3819.825	-121
3822.463	-124
3825.1	-120
3827.735	-122
3830.367	-124
3832.998	-127
3835.627	-124
3838.253	-124
3840.878	-123
3843.501	-115
3846.122	-118
3848.741	-123
3851.358	-123
3853.973	-125
3856.586	-122
3859.197	-128
3861.806	-117
3864.414	-122
3867.019	-119
3869.622	-118
3872.224	-112
3874.823	-102
3877.421	-95
3880.016	-72
3882.61	-54
3885.202	-48
3887.792	-63
3890.38	-85
3892.966	-111
3895.55	-113
3898.132	-115
3900.713	-124
3903.291	-126
3905.868	-123
3908.442	-115
3911.015	-126
3913.586	-125
3916.155	-129
3918.722	-130
3921.287	-127
3923.85	-124
3926.411	-128
3928.971	-124
3931.528	-126
3934.084	-124
3936.638	-127
3939.19	-133
3941.74	-122
3944.288	-123
3946.834	-122
3949.378	-127
3951.921	-127
3954.462	-130
3957	-126
3959.537	-120
3962.072	-123
3964.606	-122
3967.137	-122
3969.667	-124
3972.194	-125
3974.72	-127
3977.244	-128
3979.766	-126
3982.286	-120
3984.805	-122
3987.321	-120
3989.836	-115
3992.349	-123
3994.86	-125
3997.369	-126
3999.877	-123
4002.382	-115
4004.886	-126
4007.388	-121
4009.888	-117
4012.386	-127
4014.883	-126
4017.377	-124
4019.87	-123
4022.361	-124
4024.85	-121
4027.338	-126
4029.823	-121
4032.307	-124
4034.789	-126
4037.269	-123
4039.747	-118
4042.224	-125
4044.699	-124
4047.172	-118
4049.643	-122
4052.112	-121
4054.58	-124
4057.046	-123
4059.51	-122
4061.972	-121
4064.432	-121
4066.891	-125
4069.348	-121
4071.803	-122
4074.256	-122
4076.708	-119
4079.158	-123
4081.606	-120
4084.052	-127
4086.497	-123
4088.939	-119
4091.38	-116
4093.819	-123
4096.257	-131
4098.693	-129
4101.127	-130
4103.559	-126
4105.989	10
4108.418	6
4110.845	8
4113.27	7
4115.694	2
4118.115	-6
4120.535	-124
4122.954	-127
4125.37	-122
4127.785	-125
4130.198	-122
4132.609	-120
4135.019	-131
4137.427	-128
4139.833	-131
4142.237	-132
