Data from 2018-2-8_conc=3_n=2_RamanShift_02.txt Node
Date: Mon Mar 12 14:32:28 IST 2018
User: aro
Spectrometer: QEPB0276
Trigger mode: 0
Integration Time (sec): 3.000000E1
Scans to average: 1
Electric dark correction enabled: true
Nonlinearity correction enabled: false
Boxcar width: 0
XAxis mode: Raman Shifts
Number of Pixels in Spectrum: 1044
>>>>>Begin Spectral Data<<<<<
160.701	14
166.742	42
172.777	131
178.805	388
184.826	1048
190.841	2252
196.849	3799
202.85	5000
208.845	5435
214.833	5458
220.815	5386
226.789	5358
232.758	5363
238.719	5361
244.674	5312
250.623	5246
256.565	5205
262.5	5124
268.429	5029
274.351	5018
280.267	4962
286.176	4962
292.079	4907
297.975	4889
303.865	4862
309.748	4841
315.625	4851
321.495	4842
327.359	4818
333.217	4845
339.068	4860
344.912	4872
350.751	4862
356.583	4852
362.408	4847
368.227	4854
374.04	4889
379.847	4912
385.647	4943
391.44	4941
397.228	4975
403.009	4991
408.784	4984
414.553	5013
420.315	5046
426.071	5028
431.821	5061
437.565	5020
443.302	5028
449.033	4969
454.758	4991
460.477	4982
466.189	4944
471.896	4905
477.596	4899
483.29	4851
488.978	4858
494.66	4842
500.335	4769
506.005	4667
511.668	4526
517.325	4404
522.977	4321
528.622	4230
534.261	4165
539.894	4107
545.521	4087
551.141	4035
556.756	4010
562.365	4011
567.968	3968
573.565	3952
579.155	3933
584.74	3937
590.319	3910
595.892	3891
601.459	3880
607.02	3889
612.575	3856
618.124	3809
623.667	3776
629.204	3760
634.735	3738
640.261	3676
645.781	3677
651.294	3649
656.802	3625
662.304	3650
667.8	3634
673.29	3634
678.775	3607
684.254	3576
689.726	3608
695.193	3582
700.655	3550
706.11	3539
711.56	3502
717.004	3474
722.442	3464
727.874	3468
733.301	3462
738.722	3427
744.137	3425
749.547	3413
754.951	3413
760.349	3418
765.741	3421
771.128	3435
776.509	3447
781.885	3482
787.254	3485
792.618	3485
797.977	3448
803.33	3449
808.677	3426
814.019	3370
819.355	3339
824.686	3342
830.011	3334
835.33	3319
840.644	3326
845.952	3312
851.255	3311
856.552	3278
861.844	3255
867.13	3248
872.41	3214
877.686	3222
882.955	3218
888.219	3158
893.478	3123
898.731	3060
903.979	3040
909.221	3010
914.458	3035
919.69	3014
924.916	3018
930.136	3033
935.351	3031
940.561	3036
945.766	3026
950.965	3027
956.158	3013
961.347	2964
966.529	2933
971.707	2878
976.879	2837
982.046	2793
987.208	2769
992.364	2782
997.515	2828
1002.66	2837
1007.801	2828
1012.936	2886
1018.066	2869
1023.19	2885
1028.309	2899
1033.423	2881
1038.532	2858
1043.636	2843
1048.734	2815
1053.827	2801
1058.915	2744
1063.998	2726
1069.075	2715
1074.147	2710
1079.214	2731
1084.276	2724
1089.333	2759
1094.385	2765
1099.431	2745
1104.472	2756
1109.509	2734
1114.54	2697
1119.565	2660
1124.586	2652
1129.602	2604
1134.613	2600
1139.618	2559
1144.619	2578
1149.614	2537
1154.604	2574
1159.589	2565
1164.57	2582
1169.545	2581
1174.515	2581
1179.48	2558
1184.44	2560
1189.395	2514
1194.345	2498
1199.29	2492
1204.23	2480
1209.165	2510
1214.095	2521
1219.021	2548
1223.941	2533
1228.856	2556
1233.766	2544
1238.672	2556
1243.572	2545
1248.467	2532
1253.358	2501
1258.244	2494
1263.124	2422
1268	2397
1272.871	2359
1277.737	2333
1282.599	2322
1287.455	2335
1292.306	2334
1297.153	2331
1301.995	2350
1306.832	2363
1311.664	2383
1316.491	2379
1321.314	2366
1326.132	2358
1330.945	2333
1335.753	2303
1340.556	2275
1345.354	2229
1350.148	2193
1354.937	2165
1359.722	2139
1364.501	2088
1369.276	2075
1374.046	2023
1378.811	1988
1383.572	1981
1388.327	1995
1393.079	1985
1397.825	1987
1402.567	1984
1407.304	1990
1412.036	1991
1416.764	2011
1421.487	2011
1426.205	2004
1430.919	2007
1435.628	2011
1440.333	2039
1445.032	2048
1449.727	2073
1454.418	2075
1459.104	2066
1463.785	2039
1468.462	2000
1473.134	1960
1477.802	1930
1482.465	1880
1487.123	1843
1491.777	1828
1496.426	1797
1501.071	1788
1505.711	1792
1510.347	1782
1514.978	1765
1519.604	1766
1524.226	1771
1528.844	1750
1533.457	1735
1538.065	1720
1542.669	1741
1547.269	1716
1551.864	1738
1556.454	1747
1561.041	1771
1565.622	1780
1570.199	1794
1574.772	1793
1579.34	1842
1583.904	1849
1588.464	1873
1593.019	1864
1597.569	1875
1602.115	1879
1606.657	1870
1611.195	1870
1615.728	1835
1620.256	1849
1624.78	1841
1629.3	1844
1633.816	1850
1638.327	1855
1642.834	1877
1647.336	1873
1651.834	1894
1656.328	1876
1660.817	1875
1665.302	1858
1669.783	1825
1674.259	1775
1678.732	1735
1683.199	1690
1687.663	1619
1692.122	1587
1696.577	1534
1701.028	1457
1705.474	1412
1709.917	1351
1714.355	1325
1718.788	1316
1723.218	1334
1727.643	1337
1732.064	1321
1736.481	1310
1740.893	1279
1745.301	1247
1749.705	1217
1754.105	1203
1758.501	1186
1762.893	1179
1767.28	1154
1771.663	1143
1776.042	1135
1780.417	1120
1784.787	1114
1789.154	1111
1793.516	1101
1797.874	1096
1802.228	1054
1806.578	1046
1810.924	1043
1815.266	1040
1819.603	1041
1823.937	1027
1828.266	1036
1832.591	1019
1836.913	1021
1841.23	1025
1845.543	1015
1849.852	1021
1854.156	1020
1858.457	1025
1862.754	1030
1867.047	1013
1871.335	1020
1875.62	1027
1879.9	1015
1884.177	1006
1888.449	1014
1892.718	998
1896.982	974
1901.243	956
1905.499	959
1909.752	923
1914	931
1918.245	925
1922.485	908
1926.722	904
1930.954	913
1935.183	884
1939.408	886
1943.628	870
1947.845	877
1952.058	864
1956.267	857
1960.472	854
1964.673	848
1968.87	839
1973.063	838
1977.252	814
1981.438	824
1985.619	810
1989.797	813
1993.971	842
1998.14	822
2002.306	823
2006.469	835
2010.627	844
2014.781	844
2018.932	854
2023.078	827
2027.221	832
2031.36	816
2035.495	817
2039.627	785
2043.754	784
2047.878	776
2051.998	791
2056.114	764
2060.226	757
2064.334	773
2068.439	765
2072.54	758
2076.637	760
2080.73	757
2084.82	747
2088.906	743
2092.988	734
2097.066	735
2101.14	719
2105.211	713
2109.278	700
2113.342	698
2117.401	693
2121.457	686
2125.509	675
2129.558	666
2133.602	668
2137.643	681
2141.681	670
2145.714	685
2149.744	673
2153.77	680
2157.793	651
2161.812	670
2165.827	661
2169.838	643
2173.846	642
2177.851	624
2181.851	606
2185.848	614
2189.841	618
2193.831	605
2197.817	604
2201.799	592
2205.778	586
2209.753	592
2213.725	599
2217.693	610
2221.657	584
2225.618	588
2229.575	596
2233.529	571
2237.479	570
2241.425	563
2245.368	558
2249.307	544
2253.243	547
2257.175	538
2261.104	526
2265.029	518
2268.95	525
2272.868	502
2276.783	513
2280.694	503
2284.601	499
2288.505	492
2292.405	481
2296.302	484
2300.195	479
2304.085	463
2307.971	453
2311.854	463
2315.734	439
2319.609	441
2323.482	433
2327.351	432
2331.216	445
2335.078	455
2338.937	440
2342.792	422
2346.643	415
2350.492	433
2354.336	418
2358.178	417
2362.015	420
2365.85	417
2369.681	418
2373.508	421
2377.333	427
2381.153	422
2384.971	428
2388.785	422
2392.595	411
2396.402	411
2400.206	403
2404.007	403
2407.804	404
2411.597	396
2415.388	400
2419.174	392
2422.958	379
2426.738	401
2430.515	388
2434.289	392
2438.059	374
2441.825	374
2445.589	374
2449.349	367
2453.106	367
2456.859	362
2460.61	352
2464.356	338
2468.1	346
2471.84	350
2475.577	335
2479.311	339
2483.041	332
2486.768	330
2490.492	324
2494.213	336
2497.93	328
2501.644	328
2505.355	320
2509.062	315
2512.766	315
2516.467	316
2520.165	308
2523.859	316
2527.551	304
2531.239	292
2534.923	281
2538.605	296
2542.283	282
2545.958	284
2549.63	283
2553.299	276
2556.964	279
2560.626	269
2564.285	268
2567.941	267
2571.594	264
2575.243	265
2578.89	254
2582.533	248
2586.173	249
2589.809	239
2593.443	251
2597.073	244
2600.701	235
2604.325	233
2607.946	228
2611.564	235
2615.178	236
2618.79	234
2622.398	226
2626.004	229
2629.606	210
2633.205	217
2636.801	213
2640.394	222
2643.983	217
2647.57	210
2651.153	211
2654.734	213
2658.311	195
2661.885	211
2665.456	203
2669.025	194
2672.589	194
2676.151	193
2679.71	201
2683.266	192
2686.819	180
2690.368	181
2693.915	183
2697.458	181
2700.999	178
2704.536	170
2708.071	173
2711.602	171
2715.13	166
2718.656	155
2722.178	152
2725.697	155
2729.214	144
2732.727	153
2736.237	161
2739.744	143
2743.249	147
2746.75	141
2750.248	135
2753.743	137
2757.236	133
2760.725	132
2764.211	124
2767.695	132
2771.175	124
2774.652	119
2778.127	118
2781.598	121
2785.067	124
2788.532	123
2791.995	120
2795.455	120
2798.911	119
2802.365	126
2805.816	140
2809.264	126
2812.709	127
2816.151	132
2819.59	132
2823.026	123
2826.46	119
2829.89	132
2833.318	121
2836.742	138
2840.164	126
2843.583	130
2846.999	134
2850.412	117
2853.822	134
2857.229	137
2860.634	137
2864.035	138
2867.434	144
2870.83	152
2874.223	157
2877.613	161
2881	162
2884.385	170
2887.766	161
2891.145	166
2894.521	160
2897.894	179
2901.264	167
2904.631	167
2907.996	174
2911.358	169
2914.717	171
2918.073	188
2921.426	186
2924.777	199
2928.124	201
2931.469	199
2934.811	201
2938.15	209
2941.487	221
2944.821	217
2948.152	214
2951.48	221
2954.805	218
2958.128	214
2961.447	201
2964.765	202
2968.079	203
2971.39	207
2974.699	214
2978.005	211
2981.308	208
2984.609	225
2987.907	216
2991.202	219
2994.494	220
2997.784	228
3001.07	227
3004.355	233
3007.636	234
3010.915	235
3014.191	237
3017.464	243
3020.734	243
3024.002	245
3027.267	258
3030.53	262
3033.789	263
3037.046	268
3040.301	267
3043.552	285
3046.801	293
3050.048	305
3053.291	314
3056.532	316
3059.771	328
3063.006	332
3066.239	345
3069.469	366
3072.697	378
3075.922	390
3079.144	396
3082.364	402
3085.581	407
3088.795	416
3092.007	422
3095.216	429
3098.423	447
3101.627	463
3104.828	466
3108.026	472
3111.222	486
3114.416	496
3117.607	512
3120.795	514
3123.98	532
3127.163	536
3130.344	561
3133.521	571
3136.696	583
3139.869	599
3143.039	601
3146.206	596
3149.371	610
3152.533	615
3155.693	636
3158.85	630
3162.005	652
3165.157	644
3168.306	635
3171.453	655
3174.597	645
3177.739	671
3180.878	647
3184.014	670
3187.149	649
3190.28	678
3193.409	670
3196.536	667
3199.659	680
3202.781	674
3205.9	683
3209.016	683
3212.13	675
3215.241	667
3218.35	659
3221.456	660
3224.56	654
3227.661	655
3230.76	625
3233.856	627
3236.95	626
3240.041	603
3243.13	593
3246.216	590
3249.3	595
3252.382	593
3255.46	577
3258.537	573
3261.611	558
3264.682	558
3267.751	555
3270.818	555
3273.882	545
3276.943	551
3280.002	538
3283.059	544
3286.113	519
3289.165	541
3292.214	518
3295.261	509
3298.306	514
3301.348	497
3304.387	503
3307.425	498
3310.459	496
3313.492	479
3316.521	473
3319.549	468
3322.574	457
3325.597	463
3328.617	460
3331.635	478
3334.65	452
3337.663	444
3340.674	459
3343.682	461
3346.688	444
3349.691	454
3352.692	454
3355.691	442
3358.687	440
3361.681	444
3364.673	443
3367.662	419
3370.649	419
3373.633	416
3376.615	394
3379.595	395
3382.572	400
3385.547	389
3388.52	383
3391.49	374
3394.458	378
3397.424	355
3400.387	363
3403.348	355
3406.307	353
3409.263	341
3412.217	342
3415.168	336
3418.118	334
3421.065	324
3424.009	321
3426.951	324
3429.891	308
3432.829	297
3435.764	293
3438.697	276
3441.628	277
3444.557	268
3447.483	260
3450.407	254
3453.328	238
3456.247	232
3459.164	216
3462.079	209
3464.991	198
3467.902	193
3470.809	195
3473.715	179
3476.618	170
3479.519	162
3482.418	153
3485.315	152
3488.209	135
3491.101	138
3493.99	132
3496.878	129
3499.763	110
3502.646	104
3505.527	104
3508.405	96
3511.281	88
3514.155	84
3517.027	82
3519.897	66
3522.764	53
3525.629	49
3528.492	41
3531.352	39
3534.211	42
3537.067	30
3539.921	26
3542.773	19
3545.622	5
3548.469	3
3551.315	1
3554.157	-1
3556.998	-12
3559.837	-9
3562.673	-15
3565.507	-17
3568.339	-26
3571.169	-38
3573.996	-29
3576.822	-30
3579.645	-36
3582.466	-29
3585.285	-46
3588.101	-41
3590.916	-48
3593.728	-63
3596.538	-55
3599.346	-61
3602.152	-57
3604.956	-63
3607.757	-63
3610.556	-72
3613.354	-72
3616.149	-75
3618.942	-81
3621.732	-73
3624.521	-78
3627.307	-82
3630.092	-79
3632.874	-83
3635.654	-93
3638.432	-90
3641.208	-86
3643.982	-97
3646.753	-95
3649.523	-94
3652.29	-90
3655.055	-96
3657.818	-98
3660.579	-100
3663.338	-95
3666.095	-102
3668.849	-102
3671.602	-101
3674.352	-110
3677.101	-109
3679.847	-113
3682.591	-110
3685.333	-105
3688.073	-113
3690.811	-117
3693.547	-124
3696.281	-120
3699.013	-110
3701.742	-122
3704.47	-116
3707.195	-113
3709.919	-116
3712.64	-119
3715.359	-127
3718.076	-125
3720.792	-122
3723.505	-125
3726.216	-122
3728.925	-122
3731.632	-123
3734.336	-134
3737.039	-128
3739.74	-129
3742.439	-130
3745.136	-124
3747.83	-129
3750.523	-128
3753.213	-128
3755.902	-125
3758.589	-138
3761.273	-127
3763.956	-127
3766.636	-125
3769.315	-126
3771.991	-123
3774.665	-132
3777.338	-125
3780.008	-134
3782.677	-133
3785.343	-130
3788.007	-132
3790.67	-126
3793.33	-127
3795.989	-132
3798.645	-127
3801.299	-133
3803.952	-141
3806.602	-127
3809.251	-137
3811.897	-142
3814.542	-129
3817.184	-130
3819.825	-136
3822.463	-136
3825.1	-135
3827.735	-131
3830.367	-132
3832.998	-133
3835.627	-136
3838.253	-129
3840.878	-135
3843.501	-132
3846.122	-134
3848.741	-138
3851.358	-132
3853.973	-137
3856.586	-128
3859.197	-137
3861.806	-135
3864.414	-137
3867.019	-134
3869.622	-132
3872.224	-120
3874.823	-115
3877.421	-99
3880.016	-86
3882.61	-67
3885.202	-64
3887.792	-83
3890.38	-104
3892.966	-126
3895.55	-129
3898.132	-126
3900.713	-134
3903.291	-135
3905.868	-139
3908.442	-131
3911.015	-136
3913.586	-136
3916.155	-136
3918.722	-138
3921.287	-139
3923.85	-138
3926.411	-141
3928.971	-140
3931.528	-138
3934.084	-133
3936.638	-129
3939.19	-140
3941.74	-136
3944.288	-134
3946.834	-130
3949.378	-134
3951.921	-135
3954.462	-144
3957	-138
3959.537	-128
3962.072	-135
3964.606	-131
3967.137	-131
3969.667	-137
3972.194	-142
3974.72	-137
3977.244	-137
3979.766	-139
3982.286	-129
3984.805	-133
3987.321	-138
3989.836	-127
3992.349	-140
3994.86	-136
3997.369	-138
3999.877	-138
4002.382	-129
4004.886	-137
4007.388	-136
4009.888	-133
4012.386	-136
4014.883	-135
4017.377	-129
4019.87	-133
4022.361	-137
4024.85	-133
4027.338	-134
4029.823	-129
4032.307	-131
4034.789	-135
4037.269	-134
4039.747	-131
4042.224	-130
4044.699	-132
4047.172	-133
4049.643	-129
4052.112	-135
4054.58	-139
4057.046	-134
4059.51	-137
4061.972	-129
4064.432	-132
4066.891	-136
4069.348	-133
4071.803	-138
4074.256	-142
4076.708	-133
4079.158	-135
4081.606	-131
4084.052	-135
4086.497	-133
4088.939	-127
4091.38	-132
4093.819	-136
4096.257	-147
4098.693	-138
4101.127	-139
4103.559	-140
4105.989	1
4108.418	-2
4110.845	-5
4113.27	-9
4115.694	-15
4118.115	-6
4120.535	-140
4122.954	-142
4125.37	-125
4127.785	-135
4130.198	-134
4132.609	-134
4135.019	-143
4137.427	-143
4139.833	-144
4142.237	-145
