Data from 2018-2-8_conc=6_n=5_RamanShift_01.txt Node
Date: Mon Mar 12 16:35:58 IST 2018
User: aro
Spectrometer: QEPB0276
Trigger mode: 0
Integration Time (sec): 3.000000E1
Scans to average: 1
Electric dark correction enabled: true
Nonlinearity correction enabled: false
Boxcar width: 0
XAxis mode: Raman Shifts
Number of Pixels in Spectrum: 1044
>>>>>Begin Spectral Data<<<<<
160.701	18
166.742	42
172.777	110
178.805	353
184.826	930
190.841	1975
196.849	3264
202.85	4287
208.845	4679
214.833	4625
220.815	4599
226.789	4580
232.758	4566
238.719	4592
244.674	4538
250.623	4509
256.565	4445
262.5	4370
268.429	4335
274.351	4295
280.267	4235
286.176	4246
292.079	4207
297.975	4169
303.865	4162
309.748	4193
315.625	4179
321.495	4173
327.359	4165
333.217	4179
339.068	4168
344.912	4179
350.751	4177
356.583	4224
362.408	4183
368.227	4204
374.04	4237
379.847	4252
385.647	4251
391.44	4284
397.228	4251
403.009	4305
408.784	4337
414.553	4376
420.315	4372
426.071	4382
431.821	4389
437.565	4359
443.302	4352
449.033	4350
454.758	4335
460.477	4311
466.189	4306
471.896	4238
477.596	4231
483.29	4212
488.978	4205
494.66	4155
500.335	4072
506.005	4021
511.668	3875
517.325	3716
522.977	3646
528.622	3502
534.261	3503
539.894	3425
545.521	3386
551.141	3374
556.756	3350
562.365	3314
567.968	3289
573.565	3257
579.155	3272
584.74	3247
590.319	3246
595.892	3234
601.459	3233
607.02	3216
612.575	3207
618.124	3172
623.667	3144
629.204	3074
634.735	3046
640.261	3041
645.781	3014
651.294	2997
656.802	3015
662.304	2998
667.8	2983
673.29	2992
678.775	2962
684.254	2956
689.726	2963
695.193	2955
700.655	2922
706.11	2917
711.56	2894
717.004	2877
722.442	2887
727.874	2850
733.301	2861
738.722	2842
744.137	2834
749.547	2812
754.951	2809
760.349	2827
765.741	2829
771.128	2828
776.509	2889
781.885	2889
787.254	2881
792.618	2890
797.977	2894
803.33	2870
808.677	2822
814.019	2830
819.355	2799
824.686	2763
830.011	2761
835.33	2763
840.644	2730
845.952	2722
851.255	2747
856.552	2734
861.844	2702
867.13	2691
872.41	2661
877.686	2654
882.955	2626
888.219	2602
893.478	2548
898.731	2513
903.979	2494
909.221	2464
914.458	2476
919.69	2474
924.916	2461
930.136	2484
935.351	2465
940.561	2497
945.766	2481
950.965	2464
956.158	2437
961.347	2403
966.529	2382
971.707	2360
976.879	2348
982.046	2301
987.208	2282
992.364	2291
997.515	2309
1002.66	2327
1007.801	2349
1012.936	2362
1018.066	2365
1023.19	2361
1028.309	2381
1033.423	2378
1038.532	2346
1043.636	2343
1048.734	2321
1053.827	2296
1058.915	2259
1063.998	2253
1069.075	2260
1074.147	2244
1079.214	2229
1084.276	2239
1089.333	2252
1094.385	2271
1099.431	2275
1104.472	2286
1109.509	2267
1114.54	2222
1119.565	2194
1124.586	2155
1129.602	2139
1134.613	2132
1139.618	2103
1144.619	2101
1149.614	2107
1154.604	2101
1159.589	2106
1164.57	2136
1169.545	2125
1174.515	2131
1179.48	2106
1184.44	2106
1189.395	2105
1194.345	2064
1199.29	2047
1204.23	2044
1209.165	2059
1214.095	2055
1219.021	2088
1223.941	2102
1228.856	2115
1233.766	2107
1238.672	2107
1243.572	2081
1248.467	2083
1253.358	2069
1258.244	2023
1263.124	2003
1268	1974
1272.871	1946
1277.737	1923
1282.599	1917
1287.455	1932
1292.306	1928
1297.153	1959
1301.995	1934
1306.832	1964
1311.664	1975
1316.491	1956
1321.314	1957
1326.132	1947
1330.945	1939
1335.753	1897
1340.556	1865
1345.354	1852
1350.148	1835
1354.937	1793
1359.722	1780
1364.501	1757
1369.276	1736
1374.046	1682
1378.811	1666
1383.572	1656
1388.327	1664
1393.079	1677
1397.825	1656
1402.567	1671
1407.304	1652
1412.036	1667
1416.764	1657
1421.487	1653
1426.205	1658
1430.919	1667
1435.628	1674
1440.333	1690
1445.032	1704
1449.727	1720
1454.418	1736
1459.104	1729
1463.785	1696
1468.462	1698
1473.134	1635
1477.802	1635
1482.465	1611
1487.123	1552
1491.777	1536
1496.426	1540
1501.071	1518
1505.711	1507
1510.347	1517
1514.978	1515
1519.604	1521
1524.226	1516
1528.844	1492
1533.457	1480
1538.065	1479
1542.669	1483
1547.269	1481
1551.864	1465
1556.454	1486
1561.041	1496
1565.622	1511
1570.199	1505
1574.772	1507
1579.34	1543
1583.904	1566
1588.464	1578
1593.019	1579
1597.569	1571
1602.115	1564
1606.657	1565
1611.195	1551
1615.728	1564
1620.256	1536
1624.78	1569
1629.3	1559
1633.816	1562
1638.327	1583
1642.834	1578
1647.336	1595
1651.834	1596
1656.328	1616
1660.817	1605
1665.302	1593
1669.783	1570
1674.259	1511
1678.732	1475
1683.199	1428
1687.663	1401
1692.122	1349
1696.577	1318
1701.028	1262
1705.474	1223
1709.917	1175
1714.355	1158
1718.788	1144
1723.218	1147
1727.643	1147
1732.064	1145
1736.481	1137
1740.893	1099
1745.301	1090
1749.705	1047
1754.105	1041
1758.501	1021
1762.893	1011
1767.28	1011
1771.663	990
1776.042	987
1780.417	967
1784.787	958
1789.154	939
1793.516	950
1797.874	932
1802.228	923
1806.578	904
1810.924	906
1815.266	896
1819.603	881
1823.937	886
1828.266	889
1832.591	894
1836.913	882
1841.23	871
1845.543	883
1849.852	880
1854.156	879
1858.457	884
1862.754	882
1867.047	876
1871.335	897
1875.62	890
1879.9	879
1884.177	883
1888.449	876
1892.718	844
1896.982	858
1901.243	835
1905.499	815
1909.752	820
1914	807
1918.245	818
1922.485	798
1926.722	799
1930.954	790
1935.183	790
1939.408	764
1943.628	767
1947.845	751
1952.058	763
1956.267	762
1960.472	756
1964.673	731
1968.87	721
1973.063	733
1977.252	733
1981.438	717
1985.619	727
1989.797	737
1993.971	732
1998.14	714
2002.306	711
2006.469	721
2010.627	740
2014.781	736
2018.932	733
2023.078	725
2027.221	728
2031.36	719
2035.495	691
2039.627	687
2043.754	687
2047.878	671
2051.998	673
2056.114	676
2060.226	677
2064.334	680
2068.439	664
2072.54	655
2076.637	672
2080.73	653
2084.82	651
2088.906	646
2092.988	636
2097.066	644
2101.14	627
2105.211	623
2109.278	626
2113.342	603
2117.401	601
2121.457	606
2125.509	600
2129.558	592
2133.602	601
2137.643	591
2141.681	590
2145.714	589
2149.744	574
2153.77	589
2157.793	578
2161.812	583
2165.827	569
2169.838	569
2173.846	556
2177.851	544
2181.851	523
2185.848	533
2189.841	526
2193.831	529
2197.817	517
2201.799	505
2205.778	500
2209.753	502
2213.725	510
2217.693	510
2221.657	514
2225.618	506
2229.575	515
2233.529	493
2237.479	489
2241.425	485
2245.368	480
2249.307	475
2253.243	464
2257.175	462
2261.104	457
2265.029	452
2268.95	445
2272.868	436
2276.783	422
2280.694	428
2284.601	408
2288.505	413
2292.405	416
2296.302	412
2300.195	398
2304.085	393
2307.971	378
2311.854	389
2315.734	374
2319.609	370
2323.482	372
2327.351	377
2331.216	380
2335.078	387
2338.937	363
2342.792	359
2346.643	351
2350.492	353
2354.336	350
2358.178	355
2362.015	349
2365.85	360
2369.681	351
2373.508	354
2377.333	362
2381.153	344
2384.971	354
2388.785	351
2392.595	345
2396.402	342
2400.206	344
2404.007	339
2407.804	337
2411.597	327
2415.388	329
2419.174	319
2422.958	326
2426.738	327
2430.515	322
2434.289	323
2438.059	309
2441.825	310
2445.589	310
2449.349	304
2453.106	305
2456.859	293
2460.61	308
2464.356	287
2468.1	279
2471.84	283
2475.577	285
2479.311	275
2483.041	275
2486.768	277
2490.492	268
2494.213	275
2497.93	270
2501.644	276
2505.355	264
2509.062	272
2512.766	265
2516.467	256
2520.165	258
2523.859	259
2527.551	255
2531.239	237
2534.923	240
2538.605	238
2542.283	233
2545.958	227
2549.63	239
2553.299	225
2556.964	230
2560.626	226
2564.285	220
2567.941	220
2571.594	221
2575.243	215
2578.89	205
2582.533	206
2586.173	198
2589.809	199
2593.443	205
2597.073	199
2600.701	197
2604.325	188
2607.946	196
2611.564	186
2615.178	185
2618.79	196
2622.398	197
2626.004	198
2629.606	189
2633.205	183
2636.801	179
2640.394	180
2643.983	177
2647.57	186
2651.153	178
2654.734	165
2658.311	166
2661.885	163
2665.456	160
2669.025	171
2672.589	166
2676.151	164
2679.71	156
2683.266	156
2686.819	163
2690.368	154
2693.915	148
2697.458	139
2700.999	149
2704.536	143
2708.071	146
2711.602	131
2715.13	135
2718.656	137
2722.178	127
2725.697	124
2729.214	126
2732.727	137
2736.237	131
2739.744	127
2743.249	118
2746.75	126
2750.248	125
2753.743	109
2757.236	110
2760.725	112
2764.211	114
2767.695	108
2771.175	108
2774.652	97
2778.127	95
2781.598	100
2785.067	103
2788.532	104
2791.995	107
2795.455	111
2798.911	106
2802.365	107
2805.816	110
2809.264	103
2812.709	104
2816.151	110
2819.59	109
2823.026	101
2826.46	98
2829.89	107
2833.318	101
2836.742	109
2840.164	107
2843.583	105
2846.999	109
2850.412	106
2853.822	111
2857.229	108
2860.634	117
2864.035	113
2867.434	115
2870.83	131
2874.223	131
2877.613	136
2881	149
2884.385	146
2887.766	137
2891.145	131
2894.521	136
2897.894	143
2901.264	155
2904.631	151
2907.996	147
2911.358	146
2914.717	156
2918.073	155
2921.426	158
2924.777	167
2928.124	170
2931.469	167
2934.811	177
2938.15	175
2941.487	186
2944.821	176
2948.152	181
2951.48	188
2954.805	184
2958.128	182
2961.447	180
2964.765	178
2968.079	170
2971.39	181
2974.699	184
2978.005	182
2981.308	195
2984.609	195
2987.907	182
2991.202	196
2994.494	188
2997.784	196
3001.07	200
3004.355	209
3007.636	210
3010.915	207
3014.191	197
3017.464	214
3020.734	218
3024.002	208
3027.267	231
3030.53	224
3033.789	237
3037.046	238
3040.301	235
3043.552	255
3046.801	254
3050.048	257
3053.291	270
3056.532	280
3059.771	291
3063.006	302
3066.239	306
3069.469	322
3072.697	316
3075.922	340
3079.144	341
3082.364	355
3085.581	363
3088.795	373
3092.007	372
3095.216	395
3098.423	384
3101.627	401
3104.828	418
3108.026	432
3111.222	436
3114.416	446
3117.607	451
3120.795	462
3123.98	470
3127.163	480
3130.344	494
3133.521	501
3136.696	525
3139.869	521
3143.039	534
3146.206	531
3149.371	542
3152.533	559
3155.693	559
3158.85	577
3162.005	575
3165.157	572
3168.306	582
3171.453	578
3174.597	583
3177.739	587
3180.878	586
3184.014	598
3187.149	582
3190.28	590
3193.409	600
3196.536	592
3199.659	604
3202.781	613
3205.9	614
3209.016	606
3212.13	609
3215.241	599
3218.35	594
3221.456	585
3224.56	584
3227.661	572
3230.76	573
3233.856	556
3236.95	547
3240.041	536
3243.13	524
3246.216	523
3249.3	515
3252.382	530
3255.46	512
3258.537	513
3261.611	516
3264.682	495
3267.751	500
3270.818	493
3273.882	482
3276.943	481
3280.002	486
3283.059	488
3286.113	473
3289.165	473
3292.214	483
3295.261	458
3298.306	455
3301.348	449
3304.387	444
3307.425	436
3310.459	442
3313.492	428
3316.521	423
3319.549	432
3322.574	408
3325.597	406
3328.617	417
3331.635	410
3334.65	413
3337.663	391
3340.674	420
3343.682	405
3346.688	389
3349.691	397
3352.692	390
3355.691	391
3358.687	394
3361.681	402
3364.673	398
3367.662	382
3370.649	378
3373.633	369
3376.615	349
3379.595	342
3382.572	348
3385.547	350
3388.52	332
3391.49	335
3394.458	331
3397.424	327
3400.387	313
3403.348	318
3406.307	310
3409.263	306
3412.217	300
3415.168	298
3418.118	305
3421.065	288
3424.009	287
3426.951	276
3429.891	281
3432.829	257
3435.764	260
3438.697	255
3441.628	250
3444.557	231
3447.483	242
3450.407	213
3453.328	220
3456.247	208
3459.164	192
3462.079	183
3464.991	182
3467.902	173
3470.809	175
3473.715	162
3476.618	145
3479.519	144
3482.418	143
3485.315	129
3488.209	122
3491.101	124
3493.99	133
3496.878	115
3499.763	103
3502.646	99
3505.527	93
3508.405	92
3511.281	73
3514.155	80
3517.027	72
3519.897	65
3522.764	56
3525.629	39
3528.492	42
3531.352	36
3534.211	28
3537.067	25
3539.921	28
3542.773	24
3545.622	8
3548.469	0
3551.315	6
3554.157	-6
3556.998	-8
3559.837	-8
3562.673	-13
3565.507	-14
3568.339	-22
3571.169	-39
3573.996	-28
3576.822	-26
3579.645	-29
3582.466	-32
3585.285	-44
3588.101	-27
3590.916	-41
3593.728	-56
3596.538	-50
3599.346	-64
3602.152	-53
3604.956	-52
3607.757	-54
3610.556	-62
3613.354	-57
3616.149	-72
3618.942	-75
3621.732	-71
3624.521	-69
3627.307	-72
3630.092	-72
3632.874	-65
3635.654	-79
3638.432	-77
3641.208	-79
3643.982	-81
3646.753	-83
3649.523	-81
3652.29	-82
3655.055	-90
3657.818	-88
3660.579	-90
3663.338	-93
3666.095	-94
3668.849	-92
3671.602	-96
3674.352	-92
3677.101	-100
3679.847	-97
3682.591	-108
3685.333	-101
3688.073	-102
3690.811	-97
3693.547	-111
3696.281	-106
3699.013	-102
3701.742	-110
3704.47	-108
3707.195	-103
3709.919	-112
3712.64	-108
3715.359	-112
3718.076	-108
3720.792	-113
3723.505	-116
3726.216	-110
3728.925	-117
3731.632	-111
3734.336	-124
3737.039	-109
3739.74	-117
3742.439	-128
3745.136	-111
3747.83	-124
3750.523	-118
3753.213	-118
3755.902	-109
3758.589	-122
3761.273	-114
3763.956	-113
3766.636	-118
3769.315	-116
3771.991	-117
3774.665	-126
3777.338	-109
3780.008	-114
3782.677	-122
3785.343	-119
3788.007	-122
3790.67	-124
3793.33	-119
3795.989	-119
3798.645	-114
3801.299	-121
3803.952	-125
3806.602	-116
3809.251	-130
3811.897	-125
3814.542	-123
3817.184	-117
3819.825	-121
3822.463	-118
3825.1	-119
3827.735	-117
3830.367	-117
3832.998	-123
3835.627	-122
3838.253	-121
3840.878	-117
3843.501	-115
3846.122	-121
3848.741	-123
3851.358	-115
3853.973	-122
3856.586	-122
3859.197	-130
3861.806	-119
3864.414	-124
3867.019	-121
3869.622	-118
3872.224	-109
3874.823	-103
3877.421	-92
3880.016	-72
3882.61	-56
3885.202	-49
3887.792	-63
3890.38	-92
3892.966	-117
3895.55	-114
3898.132	-123
3900.713	-121
3903.291	-124
3905.868	-125
3908.442	-119
3911.015	-121
3913.586	-120
3916.155	-129
3918.722	-120
3921.287	-127
3923.85	-125
3926.411	-126
3928.971	-125
3931.528	-125
3934.084	-122
3936.638	-119
3939.19	-125
3941.74	-127
3944.288	-127
3946.834	-121
3949.378	-121
3951.921	-125
3954.462	-128
3957	-126
3959.537	-120
3962.072	-131
3964.606	-126
3967.137	-122
3969.667	-123
3972.194	-128
3974.72	-120
3977.244	-128
3979.766	-128
3982.286	-125
3984.805	-127
3987.321	-122
3989.836	-112
3992.349	-123
3994.86	-122
3997.369	-128
3999.877	-127
4002.382	-122
4004.886	-130
4007.388	-121
4009.888	-119
4012.386	-123
4014.883	-120
4017.377	-125
4019.87	-125
4022.361	-126
4024.85	-122
4027.338	-124
4029.823	-120
4032.307	-117
4034.789	-126
4037.269	-124
4039.747	-128
4042.224	-125
4044.699	-122
4047.172	-118
4049.643	-118
4052.112	-118
4054.58	-121
4057.046	-128
4059.51	-125
4061.972	-123
4064.432	-116
4066.891	-122
4069.348	-114
4071.803	-123
4074.256	-118
4076.708	-123
4079.158	-125
4081.606	-116
4084.052	-128
4086.497	-122
4088.939	-114
4091.38	-120
4093.819	-120
4096.257	-129
4098.693	-127
4101.127	-128
4103.559	-127
4105.989	15
4108.418	13
4110.845	4
4113.27	8
4115.694	1
4118.115	0
4120.535	-125
4122.954	-130
4125.37	-120
4127.785	-122
4130.198	-120
4132.609	-121
4135.019	-125
4137.427	-133
4139.833	-132
4142.237	-133
