Data from 2018-2-8_conc=4_n=1_RamanShift_01.txt Node
Date: Mon Mar 12 15:08:28 IST 2018
User: aro
Spectrometer: QEPB0276
Trigger mode: 0
Integration Time (sec): 3.000000E1
Scans to average: 1
Electric dark correction enabled: true
Nonlinearity correction enabled: false
Boxcar width: 0
XAxis mode: Raman Shifts
Number of Pixels in Spectrum: 1044
>>>>>Begin Spectral Data<<<<<
160.701	25
166.742	52
172.777	115
178.805	335
184.826	908
190.841	1913
196.849	3172
202.85	4078
208.845	4452
214.833	4449
220.815	4387
226.789	4386
232.758	4375
238.719	4339
244.674	4316
250.623	4298
256.565	4245
262.5	4176
268.429	4131
274.351	4089
280.267	4075
286.176	4054
292.079	4035
297.975	3992
303.865	4019
309.748	4024
315.625	3998
321.495	3983
327.359	3996
333.217	4007
339.068	3973
344.912	3996
350.751	4035
356.583	4031
362.408	4027
368.227	4065
374.04	4049
379.847	4105
385.647	4110
391.44	4128
397.228	4137
403.009	4185
408.784	4194
414.553	4180
420.315	4223
426.071	4235
431.821	4184
437.565	4233
443.302	4199
449.033	4219
454.758	4174
460.477	4141
466.189	4117
471.896	4109
477.596	4071
483.29	4076
488.978	4037
494.66	4018
500.335	3935
506.005	3838
511.668	3691
517.325	3554
522.977	3444
528.622	3381
534.261	3321
539.894	3273
545.521	3234
551.141	3189
556.756	3174
562.365	3166
567.968	3137
573.565	3128
579.155	3079
584.74	3072
590.319	3089
595.892	3048
601.459	3045
607.02	3046
612.575	3031
618.124	2997
623.667	2961
629.204	2961
634.735	2884
640.261	2908
645.781	2863
651.294	2855
656.802	2854
662.304	2860
667.8	2813
673.29	2829
678.775	2819
684.254	2800
689.726	2768
695.193	2779
700.655	2761
706.11	2768
711.56	2734
717.004	2722
722.442	2722
727.874	2701
733.301	2695
738.722	2688
744.137	2670
749.547	2661
754.951	2676
760.349	2684
765.741	2673
771.128	2690
776.509	2686
781.885	2725
787.254	2756
792.618	2747
797.977	2733
803.33	2729
808.677	2709
814.019	2671
819.355	2659
824.686	2646
830.011	2631
835.33	2624
840.644	2619
845.952	2612
851.255	2582
856.552	2581
861.844	2558
867.13	2555
872.41	2524
877.686	2501
882.955	2466
888.219	2489
893.478	2431
898.731	2408
903.979	2370
909.221	2343
914.458	2342
919.69	2338
924.916	2343
930.136	2332
935.351	2338
940.561	2342
945.766	2331
950.965	2330
956.158	2308
961.347	2288
966.529	2278
971.707	2238
976.879	2213
982.046	2177
987.208	2179
992.364	2171
997.515	2181
1002.66	2203
1007.801	2194
1012.936	2244
1018.066	2233
1023.19	2236
1028.309	2253
1033.423	2237
1038.532	2234
1043.636	2229
1048.734	2185
1053.827	2187
1058.915	2162
1063.998	2125
1069.075	2136
1074.147	2110
1079.214	2117
1084.276	2120
1089.333	2136
1094.385	2156
1099.431	2140
1104.472	2134
1109.509	2122
1114.54	2106
1119.565	2073
1124.586	2065
1129.602	2022
1134.613	2007
1139.618	1985
1144.619	1982
1149.614	1979
1154.604	1994
1159.589	1998
1164.57	2026
1169.545	2016
1174.515	2009
1179.48	2013
1184.44	1997
1189.395	1991
1194.345	1964
1199.29	1949
1204.23	1939
1209.165	1932
1214.095	1951
1219.021	1973
1223.941	1979
1228.856	1975
1233.766	1957
1238.672	1993
1243.572	1981
1248.467	1968
1253.358	1959
1258.244	1916
1263.124	1901
1268	1865
1272.871	1835
1277.737	1822
1282.599	1830
1287.455	1816
1292.306	1819
1297.153	1825
1301.995	1836
1306.832	1831
1311.664	1852
1316.491	1834
1321.314	1847
1326.132	1824
1330.945	1836
1335.753	1805
1340.556	1752
1345.354	1742
1350.148	1722
1354.937	1694
1359.722	1671
1364.501	1652
1369.276	1626
1374.046	1611
1378.811	1588
1383.572	1579
1388.327	1566
1393.079	1565
1397.825	1561
1402.567	1566
1407.304	1557
1412.036	1557
1416.764	1554
1421.487	1558
1426.205	1558
1430.919	1569
1435.628	1583
1440.333	1588
1445.032	1611
1449.727	1637
1454.418	1642
1459.104	1637
1463.785	1606
1468.462	1577
1473.134	1549
1477.802	1522
1482.465	1491
1487.123	1468
1491.777	1459
1496.426	1442
1501.071	1415
1505.711	1427
1510.347	1426
1514.978	1423
1519.604	1422
1524.226	1420
1528.844	1401
1533.457	1401
1538.065	1404
1542.669	1386
1547.269	1410
1551.864	1398
1556.454	1391
1561.041	1426
1565.622	1417
1570.199	1418
1574.772	1425
1579.34	1462
1583.904	1467
1588.464	1488
1593.019	1486
1597.569	1474
1602.115	1489
1606.657	1474
1611.195	1465
1615.728	1470
1620.256	1456
1624.78	1455
1629.3	1473
1633.816	1496
1638.327	1475
1642.834	1497
1647.336	1510
1651.834	1507
1656.328	1494
1660.817	1506
1665.302	1487
1669.783	1452
1674.259	1413
1678.732	1400
1683.199	1364
1687.663	1316
1692.122	1294
1696.577	1241
1701.028	1186
1705.474	1142
1709.917	1099
1714.355	1098
1718.788	1082
1723.218	1090
1727.643	1059
1732.064	1062
1736.481	1047
1740.893	1030
1745.301	1010
1749.705	999
1754.105	973
1758.501	972
1762.893	957
1767.28	937
1771.663	936
1776.042	923
1780.417	927
1784.787	919
1789.154	910
1793.516	898
1797.874	882
1802.228	866
1806.578	875
1810.924	862
1815.266	853
1819.603	849
1823.937	838
1828.266	834
1832.591	829
1836.913	831
1841.23	839
1845.543	838
1849.852	843
1854.156	832
1858.457	842
1862.754	831
1867.047	828
1871.335	838
1875.62	842
1879.9	817
1884.177	821
1888.449	822
1892.718	813
1896.982	799
1901.243	786
1905.499	784
1909.752	771
1914	769
1918.245	759
1922.485	746
1926.722	744
1930.954	732
1935.183	739
1939.408	734
1943.628	742
1947.845	725
1952.058	723
1956.267	717
1960.472	706
1964.673	694
1968.87	692
1973.063	678
1977.252	661
1981.438	687
1985.619	693
1989.797	696
1993.971	691
1998.14	675
2002.306	670
2006.469	683
2010.627	687
2014.781	689
2018.932	674
2023.078	701
2027.221	671
2031.36	673
2035.495	658
2039.627	653
2043.754	630
2047.878	629
2051.998	637
2056.114	634
2060.226	634
2064.334	629
2068.439	626
2072.54	621
2076.637	626
2080.73	630
2084.82	607
2088.906	600
2092.988	610
2097.066	604
2101.14	593
2105.211	583
2109.278	579
2113.342	567
2117.401	557
2121.457	562
2125.509	555
2129.558	551
2133.602	559
2137.643	548
2141.681	560
2145.714	548
2149.744	546
2153.77	553
2157.793	537
2161.812	549
2165.827	531
2169.838	527
2173.846	525
2177.851	507
2181.851	504
2185.848	490
2189.841	490
2193.831	496
2197.817	491
2201.799	486
2205.778	478
2209.753	468
2213.725	489
2217.693	474
2221.657	488
2225.618	475
2229.575	487
2233.529	467
2237.479	469
2241.425	457
2245.368	449
2249.307	445
2253.243	428
2257.175	427
2261.104	426
2265.029	417
2268.95	424
2272.868	409
2276.783	401
2280.694	395
2284.601	394
2288.505	392
2292.405	392
2296.302	377
2300.195	375
2304.085	381
2307.971	359
2311.854	368
2315.734	344
2319.609	342
2323.482	339
2327.351	350
2331.216	358
2335.078	354
2338.937	343
2342.792	327
2346.643	327
2350.492	323
2354.336	334
2358.178	325
2362.015	328
2365.85	326
2369.681	326
2373.508	315
2377.333	325
2381.153	322
2384.971	333
2388.785	329
2392.595	316
2396.402	317
2400.206	303
2404.007	316
2407.804	320
2411.597	307
2415.388	302
2419.174	292
2422.958	299
2426.738	293
2430.515	297
2434.289	300
2438.059	290
2441.825	288
2445.589	284
2449.349	273
2453.106	272
2456.859	279
2460.61	279
2464.356	274
2468.1	267
2471.84	260
2475.577	253
2479.311	252
2483.041	256
2486.768	255
2490.492	257
2494.213	253
2497.93	246
2501.644	253
2505.355	245
2509.062	233
2512.766	238
2516.467	230
2520.165	239
2523.859	233
2527.551	230
2531.239	226
2534.923	211
2538.605	214
2542.283	207
2545.958	214
2549.63	214
2553.299	208
2556.964	215
2560.626	195
2564.285	205
2567.941	198
2571.594	190
2575.243	198
2578.89	192
2582.533	191
2586.173	185
2589.809	176
2593.443	180
2597.073	181
2600.701	177
2604.325	170
2607.946	179
2611.564	183
2615.178	179
2618.79	180
2622.398	178
2626.004	166
2629.606	167
2633.205	163
2636.801	165
2640.394	163
2643.983	162
2647.57	162
2651.153	150
2654.734	155
2658.311	141
2661.885	149
2665.456	143
2669.025	154
2672.589	140
2676.151	149
2679.71	139
2683.266	142
2686.819	140
2690.368	134
2693.915	125
2697.458	127
2700.999	136
2704.536	127
2708.071	129
2711.602	116
2715.13	127
2718.656	118
2722.178	121
2725.697	115
2729.214	109
2732.727	118
2736.237	121
2739.744	104
2743.249	108
2746.75	101
2750.248	108
2753.743	103
2757.236	101
2760.725	95
2764.211	95
2767.695	100
2771.175	91
2774.652	87
2778.127	91
2781.598	96
2785.067	106
2788.532	91
2791.995	91
2795.455	98
2798.911	91
2802.365	98
2805.816	86
2809.264	91
2812.709	97
2816.151	100
2819.59	95
2823.026	90
2826.46	83
2829.89	90
2833.318	86
2836.742	94
2840.164	92
2843.583	94
2846.999	95
2850.412	97
2853.822	97
2857.229	94
2860.634	109
2864.035	114
2867.434	106
2870.83	119
2874.223	121
2877.613	125
2881	137
2884.385	130
2887.766	127
2891.145	131
2894.521	139
2897.894	135
2901.264	126
2904.631	129
2907.996	133
2911.358	128
2914.717	131
2918.073	137
2921.426	147
2924.777	149
2928.124	145
2931.469	153
2934.811	154
2938.15	163
2941.487	165
2944.821	170
2948.152	164
2951.48	174
2954.805	174
2958.128	167
2961.447	163
2964.765	161
2968.079	165
2971.39	164
2974.699	170
2978.005	164
2981.308	170
2984.609	168
2987.907	172
2991.202	181
2994.494	177
2997.784	172
3001.07	181
3004.355	187
3007.636	188
3010.915	189
3014.191	187
3017.464	195
3020.734	204
3024.002	194
3027.267	209
3030.53	214
3033.789	214
3037.046	222
3040.301	218
3043.552	235
3046.801	240
3050.048	242
3053.291	252
3056.532	261
3059.771	273
3063.006	273
3066.239	286
3069.469	302
3072.697	305
3075.922	314
3079.144	319
3082.364	331
3085.581	349
3088.795	336
3092.007	347
3095.216	360
3098.423	359
3101.627	381
3104.828	377
3108.026	380
3111.222	400
3114.416	399
3117.607	412
3120.795	426
3123.98	430
3127.163	436
3130.344	451
3133.521	461
3136.696	491
3139.869	492
3143.039	488
3146.206	502
3149.371	509
3152.533	518
3155.693	506
3158.85	527
3162.005	529
3165.157	532
3168.306	530
3171.453	535
3174.597	533
3177.739	540
3180.878	540
3184.014	552
3187.149	541
3190.28	542
3193.409	552
3196.536	561
3199.659	561
3202.781	564
3205.9	570
3209.016	573
3212.13	571
3215.241	557
3218.35	547
3221.456	538
3224.56	545
3227.661	537
3230.76	535
3233.856	525
3236.95	519
3240.041	509
3243.13	494
3246.216	497
3249.3	477
3252.382	478
3255.46	477
3258.537	482
3261.611	484
3264.682	451
3267.751	463
3270.818	461
3273.882	451
3276.943	446
3280.002	447
3283.059	443
3286.113	442
3289.165	447
3292.214	433
3295.261	429
3298.306	422
3301.348	426
3304.387	411
3307.425	411
3310.459	408
3313.492	394
3316.521	387
3319.549	399
3322.574	378
3325.597	374
3328.617	386
3331.635	373
3334.65	377
3337.663	364
3340.674	382
3343.682	379
3346.688	365
3349.691	377
3352.692	364
3355.691	370
3358.687	365
3361.681	360
3364.673	363
3367.662	347
3370.649	343
3373.633	337
3376.615	328
3379.595	326
3382.572	314
3385.547	322
3388.52	315
3391.49	305
3394.458	297
3397.424	297
3400.387	286
3403.348	288
3406.307	277
3409.263	282
3412.217	271
3415.168	269
3418.118	263
3421.065	269
3424.009	257
3426.951	255
3429.891	250
3432.829	231
3435.764	239
3438.697	220
3441.628	219
3444.557	221
3447.483	209
3450.407	201
3453.328	180
3456.247	178
3459.164	167
3462.079	165
3464.991	162
3467.902	161
3470.809	156
3473.715	138
3476.618	123
3479.519	123
3482.418	134
3485.315	121
3488.209	113
3491.101	109
3493.99	115
3496.878	105
3499.763	85
3502.646	82
3505.527	78
3508.405	79
3511.281	69
3514.155	62
3517.027	59
3519.897	51
3522.764	40
3525.629	32
3528.492	33
3531.352	32
3534.211	18
3537.067	14
3539.921	17
3542.773	9
3545.622	-2
3548.469	-3
3551.315	-4
3554.157	-13
3556.998	-19
3559.837	-12
3562.673	-19
3565.507	-17
3568.339	-28
3571.169	-39
3573.996	-31
3576.822	-38
3579.645	-33
3582.466	-32
3585.285	-42
3588.101	-43
3590.916	-52
3593.728	-59
3596.538	-55
3599.346	-56
3602.152	-49
3604.956	-52
3607.757	-58
3610.556	-62
3613.354	-59
3616.149	-70
3618.942	-74
3621.732	-71
3624.521	-71
3627.307	-69
3630.092	-73
3632.874	-71
3635.654	-85
3638.432	-80
3641.208	-77
3643.982	-83
3646.753	-88
3649.523	-91
3652.29	-81
3655.055	-88
3657.818	-87
3660.579	-94
3663.338	-92
3666.095	-95
3668.849	-92
3671.602	-95
3674.352	-98
3677.101	-102
3679.847	-103
3682.591	-105
3685.333	-105
3688.073	-106
3690.811	-106
3693.547	-110
3696.281	-112
3699.013	-111
3701.742	-113
3704.47	-109
3707.195	-103
3709.919	-114
3712.64	-108
3715.359	-115
3718.076	-116
3720.792	-118
3723.505	-118
3726.216	-110
3728.925	-119
3731.632	-113
3734.336	-116
3737.039	-115
3739.74	-117
3742.439	-126
3745.136	-113
3747.83	-124
3750.523	-121
3753.213	-110
3755.902	-114
3758.589	-122
3761.273	-120
3763.956	-115
3766.636	-118
3769.315	-114
3771.991	-119
3774.665	-125
3777.338	-112
3780.008	-118
3782.677	-121
3785.343	-118
3788.007	-124
3790.67	-122
3793.33	-120
3795.989	-118
3798.645	-115
3801.299	-121
3803.952	-123
3806.602	-115
3809.251	-128
3811.897	-130
3814.542	-126
3817.184	-121
3819.825	-123
3822.463	-120
3825.1	-125
3827.735	-119
3830.367	-127
3832.998	-127
3835.627	-126
3838.253	-124
3840.878	-124
3843.501	-116
3846.122	-116
3848.741	-126
3851.358	-122
3853.973	-124
3856.586	-126
3859.197	-131
3861.806	-120
3864.414	-120
3867.019	-118
3869.622	-121
3872.224	-111
3874.823	-99
3877.421	-83
3880.016	-58
3882.61	-33
3885.202	-32
3887.792	-50
3890.38	-78
3892.966	-107
3895.55	-118
3898.132	-120
3900.713	-121
3903.291	-126
3905.868	-127
3908.442	-119
3911.015	-124
3913.586	-126
3916.155	-129
3918.722	-131
3921.287	-125
3923.85	-128
3926.411	-127
3928.971	-124
3931.528	-128
3934.084	-124
3936.638	-120
3939.19	-129
3941.74	-130
3944.288	-131
3946.834	-122
3949.378	-122
3951.921	-125
3954.462	-134
3957	-123
3959.537	-124
3962.072	-129
3964.606	-121
3967.137	-122
3969.667	-125
3972.194	-128
3974.72	-124
3977.244	-123
3979.766	-126
3982.286	-122
3984.805	-124
3987.321	-125
3989.836	-114
3992.349	-123
3994.86	-128
3997.369	-129
3999.877	-127
4002.382	-118
4004.886	-130
4007.388	-117
4009.888	-119
4012.386	-127
4014.883	-127
4017.377	-122
4019.87	-124
4022.361	-127
4024.85	-122
4027.338	-118
4029.823	-124
4032.307	-118
4034.789	-131
4037.269	-128
4039.747	-126
4042.224	-122
4044.699	-124
4047.172	-122
4049.643	-118
4052.112	-125
4054.58	-122
4057.046	-127
4059.51	-128
4061.972	-122
4064.432	-123
4066.891	-119
4069.348	-117
4071.803	-128
4074.256	-122
4076.708	-121
4079.158	-123
4081.606	-116
4084.052	-126
4086.497	-120
4088.939	-118
4091.38	-126
4093.819	-123
4096.257	-127
4098.693	-125
4101.127	-130
4103.559	-128
4105.989	24
4108.418	22
4110.845	15
4113.27	21
4115.694	12
4118.115	10
4120.535	-127
4122.954	-130
4125.37	-124
4127.785	-123
4130.198	-125
4132.609	-123
4135.019	-128
4137.427	-135
4139.833	-132
4142.237	-132
