Data from 2018-2-8_conc=5_n=9_RamanShift_04.txt Node
Date: Mon Mar 12 16:18:58 IST 2018
User: aro
Spectrometer: QEPB0276
Trigger mode: 0
Integration Time (sec): 3.000000E1
Scans to average: 1
Electric dark correction enabled: true
Nonlinearity correction enabled: false
Boxcar width: 0
XAxis mode: Raman Shifts
Number of Pixels in Spectrum: 1044
>>>>>Begin Spectral Data<<<<<
160.701	7
166.742	38
172.777	121
178.805	355
184.826	979
190.841	2061
196.849	3447
202.85	4516
208.845	4962
214.833	4946
220.815	4896
226.789	4886
232.758	4903
238.719	4846
244.674	4805
250.623	4763
256.565	4721
262.5	4648
268.429	4603
274.351	4588
280.267	4538
286.176	4493
292.079	4476
297.975	4464
303.865	4435
309.748	4461
315.625	4433
321.495	4434
327.359	4434
333.217	4403
339.068	4432
344.912	4445
350.751	4420
356.583	4425
362.408	4459
368.227	4488
374.04	4472
379.847	4514
385.647	4507
391.44	4504
397.228	4553
403.009	4570
408.784	4600
414.553	4608
420.315	4643
426.071	4644
431.821	4602
437.565	4623
443.302	4613
449.033	4586
454.758	4566
460.477	4544
466.189	4527
471.896	4504
477.596	4465
483.29	4455
488.978	4464
494.66	4428
500.335	4357
506.005	4281
511.668	4115
517.325	3994
522.977	3912
528.622	3845
534.261	3757
539.894	3746
545.521	3685
551.141	3670
556.756	3624
562.365	3630
567.968	3574
573.565	3569
579.155	3537
584.74	3532
590.319	3503
595.892	3518
601.459	3514
607.02	3486
612.575	3477
618.124	3440
623.667	3423
629.204	3372
634.735	3344
640.261	3336
645.781	3281
651.294	3306
656.802	3289
662.304	3279
667.8	3248
673.29	3262
678.775	3240
684.254	3230
689.726	3232
695.193	3215
700.655	3221
706.11	3172
711.56	3163
717.004	3146
722.442	3147
727.874	3108
733.301	3120
738.722	3105
744.137	3071
749.547	3092
754.951	3083
760.349	3068
765.741	3086
771.128	3091
776.509	3122
781.885	3126
787.254	3123
792.618	3175
797.977	3139
803.33	3124
808.677	3086
814.019	3076
819.355	3048
824.686	3015
830.011	2996
835.33	3019
840.644	2997
845.952	2989
851.255	2975
856.552	2969
861.844	2946
867.13	2952
872.41	2916
877.686	2903
882.955	2876
888.219	2851
893.478	2816
898.731	2784
903.979	2752
909.221	2722
914.458	2709
919.69	2700
924.916	2727
930.136	2731
935.351	2707
940.561	2752
945.766	2708
950.965	2706
956.158	2683
961.347	2667
966.529	2619
971.707	2584
976.879	2537
982.046	2524
987.208	2513
992.364	2521
997.515	2519
1002.66	2528
1007.801	2580
1012.936	2592
1018.066	2607
1023.19	2600
1028.309	2600
1033.423	2600
1038.532	2602
1043.636	2568
1048.734	2536
1053.827	2511
1058.915	2519
1063.998	2476
1069.075	2453
1074.147	2443
1079.214	2476
1084.276	2471
1089.333	2500
1094.385	2500
1099.431	2471
1104.472	2506
1109.509	2459
1114.54	2441
1119.565	2420
1124.586	2360
1129.602	2337
1134.613	2336
1139.618	2304
1144.619	2319
1149.614	2304
1154.604	2328
1159.589	2342
1164.57	2319
1169.545	2339
1174.515	2336
1179.48	2329
1184.44	2302
1189.395	2277
1194.345	2258
1199.29	2269
1204.23	2255
1209.165	2258
1214.095	2287
1219.021	2294
1223.941	2289
1228.856	2302
1233.766	2299
1238.672	2318
1243.572	2326
1248.467	2302
1253.358	2258
1258.244	2223
1263.124	2186
1268	2150
1272.871	2122
1277.737	2114
1282.599	2109
1287.455	2109
1292.306	2122
1297.153	2113
1301.995	2126
1306.832	2139
1311.664	2169
1316.491	2199
1321.314	2146
1326.132	2150
1330.945	2123
1335.753	2087
1340.556	2056
1345.354	2026
1350.148	2007
1354.937	1968
1359.722	1921
1364.501	1913
1369.276	1901
1374.046	1843
1378.811	1818
1383.572	1808
1388.327	1809
1393.079	1810
1397.825	1806
1402.567	1808
1407.304	1818
1412.036	1806
1416.764	1820
1421.487	1809
1426.205	1818
1430.919	1824
1435.628	1824
1440.333	1864
1445.032	1882
1449.727	1886
1454.418	1890
1459.104	1872
1463.785	1860
1468.462	1829
1473.134	1801
1477.802	1759
1482.465	1713
1487.123	1701
1491.777	1677
1496.426	1665
1501.071	1631
1505.711	1633
1510.347	1629
1514.978	1619
1519.604	1627
1524.226	1633
1528.844	1602
1533.457	1601
1538.065	1603
1542.669	1586
1547.269	1609
1551.864	1584
1556.454	1622
1561.041	1619
1565.622	1640
1570.199	1636
1574.772	1647
1579.34	1668
1583.904	1690
1588.464	1692
1593.019	1711
1597.569	1713
1602.115	1696
1606.657	1692
1611.195	1698
1615.728	1667
1620.256	1678
1624.78	1683
1629.3	1693
1633.816	1688
1638.327	1705
1642.834	1702
1647.336	1711
1651.834	1715
1656.328	1727
1660.817	1720
1665.302	1703
1669.783	1669
1674.259	1651
1678.732	1585
1683.199	1551
1687.663	1504
1692.122	1449
1696.577	1408
1701.028	1337
1705.474	1310
1709.917	1260
1714.355	1218
1718.788	1219
1723.218	1233
1727.643	1224
1732.064	1215
1736.481	1212
1740.893	1188
1745.301	1168
1749.705	1140
1754.105	1128
1758.501	1093
1762.893	1081
1767.28	1056
1771.663	1053
1776.042	1050
1780.417	1040
1784.787	1024
1789.154	1005
1793.516	1002
1797.874	993
1802.228	987
1806.578	967
1810.924	957
1815.266	942
1819.603	960
1823.937	940
1828.266	951
1832.591	931
1836.913	955
1841.23	961
1845.543	940
1849.852	933
1854.156	941
1858.457	965
1862.754	950
1867.047	939
1871.335	963
1875.62	954
1879.9	951
1884.177	940
1888.449	941
1892.718	924
1896.982	909
1901.243	886
1905.499	887
1909.752	876
1914	867
1918.245	863
1922.485	837
1926.722	843
1930.954	850
1935.183	842
1939.408	825
1943.628	836
1947.845	835
1952.058	810
1956.267	800
1960.472	807
1964.673	800
1968.87	798
1973.063	776
1977.252	770
1981.438	770
1985.619	771
1989.797	768
1993.971	777
1998.14	775
2002.306	775
2006.469	779
2010.627	771
2014.781	786
2018.932	766
2023.078	785
2027.221	771
2031.36	759
2035.495	748
2039.627	731
2043.754	714
2047.878	721
2051.998	721
2056.114	721
2060.226	714
2064.334	716
2068.439	709
2072.54	700
2076.637	706
2080.73	700
2084.82	699
2088.906	699
2092.988	690
2097.066	682
2101.14	664
2105.211	647
2109.278	666
2113.342	650
2117.401	643
2121.457	638
2125.509	637
2129.558	625
2133.602	629
2137.643	626
2141.681	632
2145.714	622
2149.744	632
2153.77	631
2157.793	627
2161.812	620
2165.827	613
2169.838	607
2173.846	594
2177.851	572
2181.851	581
2185.848	579
2189.841	570
2193.831	580
2197.817	568
2201.799	552
2205.778	552
2209.753	546
2213.725	548
2217.693	552
2221.657	558
2225.618	556
2229.575	551
2233.529	539
2237.479	530
2241.425	530
2245.368	525
2249.307	512
2253.243	502
2257.175	508
2261.104	480
2265.029	490
2268.95	487
2272.868	476
2276.783	477
2280.694	471
2284.601	460
2288.505	466
2292.405	443
2296.302	435
2300.195	440
2304.085	430
2307.971	424
2311.854	429
2315.734	408
2319.609	415
2323.482	416
2327.351	411
2331.216	421
2335.078	429
2338.937	415
2342.792	389
2346.643	393
2350.492	383
2354.336	392
2358.178	394
2362.015	388
2365.85	402
2369.681	394
2373.508	401
2377.333	396
2381.153	394
2384.971	402
2388.785	390
2392.595	385
2396.402	394
2400.206	389
2404.007	388
2407.804	391
2411.597	379
2415.388	370
2419.174	368
2422.958	362
2426.738	365
2430.515	366
2434.289	366
2438.059	368
2441.825	359
2445.589	353
2449.349	342
2453.106	341
2456.859	343
2460.61	344
2464.356	331
2468.1	318
2471.84	317
2475.577	330
2479.311	314
2483.041	318
2486.768	319
2490.492	314
2494.213	322
2497.93	313
2501.644	307
2505.355	304
2509.062	296
2512.766	309
2516.467	292
2520.165	293
2523.859	289
2527.551	291
2531.239	278
2534.923	274
2538.605	268
2542.283	265
2545.958	269
2549.63	265
2553.299	268
2556.964	270
2560.626	265
2564.285	258
2567.941	257
2571.594	250
2575.243	256
2578.89	246
2582.533	247
2586.173	238
2589.809	231
2593.443	239
2597.073	219
2600.701	216
2604.325	222
2607.946	222
2611.564	214
2615.178	232
2618.79	220
2622.398	225
2626.004	220
2629.606	206
2633.205	212
2636.801	209
2640.394	209
2643.983	205
2647.57	206
2651.153	199
2654.734	197
2658.311	197
2661.885	187
2665.456	197
2669.025	190
2672.589	195
2676.151	190
2679.71	192
2683.266	184
2686.819	175
2690.368	182
2693.915	173
2697.458	171
2700.999	175
2704.536	168
2708.071	166
2711.602	157
2715.13	161
2718.656	156
2722.178	155
2725.697	144
2729.214	140
2732.727	157
2736.237	142
2739.744	143
2743.249	145
2746.75	141
2750.248	138
2753.743	136
2757.236	131
2760.725	124
2764.211	124
2767.695	117
2771.175	118
2774.652	114
2778.127	117
2781.598	122
2785.067	119
2788.532	120
2791.995	119
2795.455	124
2798.911	117
2802.365	127
2805.816	131
2809.264	117
2812.709	126
2816.151	122
2819.59	128
2823.026	118
2826.46	127
2829.89	122
2833.318	123
2836.742	136
2840.164	117
2843.583	131
2846.999	132
2850.412	128
2853.822	130
2857.229	132
2860.634	133
2864.035	136
2867.434	136
2870.83	149
2874.223	155
2877.613	155
2881	161
2884.385	161
2887.766	148
2891.145	154
2894.521	151
2897.894	159
2901.264	162
2904.631	166
2907.996	165
2911.358	163
2914.717	165
2918.073	175
2921.426	177
2924.777	181
2928.124	186
2931.469	193
2934.811	187
2938.15	195
2941.487	203
2944.821	191
2948.152	200
2951.48	208
2954.805	200
2958.128	197
2961.447	187
2964.765	198
2968.079	197
2971.39	191
2974.699	205
2978.005	202
2981.308	207
2984.609	200
2987.907	195
2991.202	202
2994.494	205
2997.784	206
3001.07	215
3004.355	222
3007.636	219
3010.915	218
3014.191	217
3017.464	221
3020.734	219
3024.002	226
3027.267	234
3030.53	234
3033.789	245
3037.046	253
3040.301	247
3043.552	259
3046.801	268
3050.048	283
3053.291	294
3056.532	298
3059.771	308
3063.006	316
3066.239	321
3069.469	334
3072.697	343
3075.922	351
3079.144	364
3082.364	380
3085.581	388
3088.795	379
3092.007	386
3095.216	395
3098.423	404
3101.627	425
3104.828	428
3108.026	441
3111.222	446
3114.416	461
3117.607	478
3120.795	474
3123.98	474
3127.163	497
3130.344	520
3133.521	515
3136.696	541
3139.869	533
3143.039	541
3146.206	557
3149.371	570
3152.533	580
3155.693	577
3158.85	583
3162.005	583
3165.157	593
3168.306	585
3171.453	585
3174.597	592
3177.739	595
3180.878	607
3184.014	625
3187.149	607
3190.28	600
3193.409	614
3196.536	603
3199.659	623
3202.781	616
3205.9	615
3209.016	629
3212.13	616
3215.241	617
3218.35	605
3221.456	600
3224.56	592
3227.661	596
3230.76	575
3233.856	569
3236.95	562
3240.041	561
3243.13	538
3246.216	542
3249.3	527
3252.382	545
3255.46	523
3258.537	519
3261.611	514
3264.682	495
3267.751	509
3270.818	486
3273.882	494
3276.943	494
3280.002	491
3283.059	491
3286.113	487
3289.165	485
3292.214	470
3295.261	476
3298.306	458
3301.348	456
3304.387	459
3307.425	457
3310.459	447
3313.492	439
3316.521	434
3319.549	419
3322.574	421
3325.597	423
3328.617	426
3331.635	411
3334.65	439
3337.663	420
3340.674	427
3343.682	418
3346.688	398
3349.691	410
3352.692	408
3355.691	401
3358.687	415
3361.681	393
3364.673	393
3367.662	394
3370.649	391
3373.633	370
3376.615	366
3379.595	363
3382.572	364
3385.547	353
3388.52	349
3391.49	349
3394.458	344
3397.424	327
3400.387	321
3403.348	322
3406.307	314
3409.263	311
3412.217	313
3415.168	297
3418.118	306
3421.065	297
3424.009	292
3426.951	284
3429.891	282
3432.829	268
3435.764	267
3438.697	252
3441.628	249
3444.557	248
3447.483	239
3450.407	222
3453.328	213
3456.247	207
3459.164	201
3462.079	189
3464.991	189
3467.902	173
3470.809	174
3473.715	153
3476.618	153
3479.519	153
3482.418	134
3485.315	129
3488.209	132
3491.101	120
3493.99	119
3496.878	109
3499.763	104
3502.646	103
3505.527	93
3508.405	91
3511.281	85
3514.155	72
3517.027	70
3519.897	63
3522.764	59
3525.629	46
3528.492	34
3531.352	44
3534.211	29
3537.067	27
3539.921	33
3542.773	16
3545.622	8
3548.469	2
3551.315	4
3554.157	-5
3556.998	-7
3559.837	-5
3562.673	-14
3565.507	-15
3568.339	-20
3571.169	-27
3573.996	-27
3576.822	-23
3579.645	-29
3582.466	-28
3585.285	-42
3588.101	-37
3590.916	-47
3593.728	-51
3596.538	-54
3599.346	-55
3602.152	-54
3604.956	-57
3607.757	-54
3610.556	-61
3613.354	-57
3616.149	-74
3618.942	-65
3621.732	-62
3624.521	-72
3627.307	-71
3630.092	-74
3632.874	-71
3635.654	-73
3638.432	-75
3641.208	-76
3643.982	-86
3646.753	-81
3649.523	-77
3652.29	-84
3655.055	-83
3657.818	-87
3660.579	-83
3663.338	-88
3666.095	-93
3668.849	-91
3671.602	-94
3674.352	-99
3677.101	-101
3679.847	-98
3682.591	-107
3685.333	-100
3688.073	-94
3690.811	-103
3693.547	-110
3696.281	-105
3699.013	-104
3701.742	-111
3704.47	-106
3707.195	-101
3709.919	-107
3712.64	-109
3715.359	-117
3718.076	-110
3720.792	-116
3723.505	-111
3726.216	-108
3728.925	-111
3731.632	-112
3734.336	-115
3737.039	-112
3739.74	-116
3742.439	-126
3745.136	-111
3747.83	-116
3750.523	-113
3753.213	-124
3755.902	-116
3758.589	-126
3761.273	-112
3763.956	-112
3766.636	-122
3769.315	-113
3771.991	-115
3774.665	-118
3777.338	-114
3780.008	-115
3782.677	-119
3785.343	-119
3788.007	-112
3790.67	-119
3793.33	-112
3795.989	-118
3798.645	-113
3801.299	-121
3803.952	-124
3806.602	-118
3809.251	-126
3811.897	-124
3814.542	-124
3817.184	-116
3819.825	-117
3822.463	-121
3825.1	-117
3827.735	-119
3830.367	-122
3832.998	-123
3835.627	-117
3838.253	-120
3840.878	-121
3843.501	-119
3846.122	-122
3848.741	-123
3851.358	-118
3853.973	-125
3856.586	-119
3859.197	-127
3861.806	-118
3864.414	-125
3867.019	-118
3869.622	-122
3872.224	-115
3874.823	-103
3877.421	-96
3880.016	-80
3882.61	-61
3885.202	-65
3887.792	-73
3890.38	-95
3892.966	-116
3895.55	-118
3898.132	-114
3900.713	-120
3903.291	-122
3905.868	-124
3908.442	-116
3911.015	-123
3913.586	-121
3916.155	-128
3918.722	-125
3921.287	-124
3923.85	-124
3926.411	-133
3928.971	-126
3931.528	-126
3934.084	-119
3936.638	-120
3939.19	-128
3941.74	-130
3944.288	-125
3946.834	-119
3949.378	-125
3951.921	-123
3954.462	-125
3957	-124
3959.537	-117
3962.072	-123
3964.606	-121
3967.137	-124
3969.667	-128
3972.194	-126
3974.72	-120
3977.244	-125
3979.766	-124
3982.286	-121
3984.805	-122
3987.321	-122
3989.836	-111
3992.349	-121
3994.86	-122
3997.369	-127
3999.877	-128
4002.382	-120
4004.886	-124
4007.388	-126
4009.888	-121
4012.386	-119
4014.883	-120
4017.377	-125
4019.87	-126
4022.361	-127
4024.85	-127
4027.338	-120
4029.823	-116
4032.307	-117
4034.789	-125
4037.269	-122
4039.747	-116
4042.224	-120
4044.699	-122
4047.172	-119
4049.643	-114
4052.112	-121
4054.58	-121
4057.046	-124
4059.51	-125
4061.972	-123
4064.432	-120
4066.891	-116
4069.348	-117
4071.803	-121
4074.256	-125
4076.708	-119
4079.158	-120
4081.606	-116
4084.052	-122
4086.497	-117
4088.939	-114
4091.38	-124
4093.819	-122
4096.257	-132
4098.693	-124
4101.127	-127
4103.559	-127
4105.989	-4
4108.418	-4
4110.845	-5
4113.27	-5
4115.694	-12
4118.115	-18
4120.535	-130
4122.954	-125
4125.37	-121
4127.785	-123
4130.198	-122
4132.609	-119
4135.019	-132
4137.427	-131
4139.833	-130
4142.237	-128
