Data from 2018-2-8_conc=5_n=7_RamanShift_03.txt Node
Date: Mon Mar 12 16:11:28 IST 2018
User: aro
Spectrometer: QEPB0276
Trigger mode: 0
Integration Time (sec): 3.000000E1
Scans to average: 1
Electric dark correction enabled: true
Nonlinearity correction enabled: false
Boxcar width: 0
XAxis mode: Raman Shifts
Number of Pixels in Spectrum: 1044
>>>>>Begin Spectral Data<<<<<
160.701	25
166.742	49
172.777	125
178.805	372
184.826	986
190.841	2101
196.849	3532
202.85	4593
208.845	5014
214.833	5032
220.815	4962
226.789	4918
232.758	4943
238.719	4944
244.674	4922
250.623	4865
256.565	4812
262.5	4744
268.429	4653
274.351	4632
280.267	4593
286.176	4596
292.079	4552
297.975	4564
303.865	4551
309.748	4543
315.625	4512
321.495	4482
327.359	4487
333.217	4511
339.068	4533
344.912	4549
350.751	4532
356.583	4561
362.408	4536
368.227	4564
374.04	4566
379.847	4591
385.647	4634
391.44	4642
397.228	4665
403.009	4670
408.784	4687
414.553	4718
420.315	4740
426.071	4773
431.821	4757
437.565	4721
443.302	4702
449.033	4718
454.758	4682
460.477	4698
466.189	4644
471.896	4618
477.596	4584
483.29	4538
488.978	4519
494.66	4507
500.335	4442
506.005	4365
511.668	4151
517.325	4031
522.977	3920
528.622	3861
534.261	3802
539.894	3734
545.521	3695
551.141	3678
556.756	3622
562.365	3630
567.968	3627
573.565	3560
579.155	3559
584.74	3535
590.319	3516
595.892	3518
601.459	3508
607.02	3516
612.575	3457
618.124	3436
623.667	3393
629.204	3373
634.735	3332
640.261	3306
645.781	3297
651.294	3298
656.802	3287
662.304	3267
667.8	3250
673.29	3253
678.775	3245
684.254	3254
689.726	3216
695.193	3238
700.655	3161
706.11	3168
711.56	3162
717.004	3146
722.442	3125
727.874	3086
733.301	3110
738.722	3076
744.137	3065
749.547	3062
754.951	3070
760.349	3075
765.741	3082
771.128	3043
776.509	3114
781.885	3133
787.254	3139
792.618	3149
797.977	3128
803.33	3119
808.677	3076
814.019	3064
819.355	3052
824.686	3027
830.011	3002
835.33	2989
840.644	2997
845.952	2982
851.255	2965
856.552	2938
861.844	2938
867.13	2924
872.41	2902
877.686	2865
882.955	2841
888.219	2832
893.478	2803
898.731	2772
903.979	2712
909.221	2699
914.458	2681
919.69	2691
924.916	2686
930.136	2691
935.351	2710
940.561	2718
945.766	2706
950.965	2684
956.158	2650
961.347	2637
966.529	2605
971.707	2576
976.879	2527
982.046	2509
987.208	2492
992.364	2513
997.515	2515
1002.66	2547
1007.801	2570
1012.936	2572
1018.066	2586
1023.19	2585
1028.309	2602
1033.423	2594
1038.532	2560
1043.636	2565
1048.734	2540
1053.827	2489
1058.915	2475
1063.998	2454
1069.075	2438
1074.147	2447
1079.214	2459
1084.276	2452
1089.333	2463
1094.385	2465
1099.431	2486
1104.472	2476
1109.509	2449
1114.54	2416
1119.565	2384
1124.586	2357
1129.602	2321
1134.613	2316
1139.618	2284
1144.619	2292
1149.614	2278
1154.604	2298
1159.589	2326
1164.57	2296
1169.545	2306
1174.515	2322
1179.48	2302
1184.44	2264
1189.395	2247
1194.345	2265
1199.29	2226
1204.23	2223
1209.165	2234
1214.095	2235
1219.021	2257
1223.941	2284
1228.856	2297
1233.766	2284
1238.672	2296
1243.572	2304
1248.467	2264
1253.358	2254
1258.244	2216
1263.124	2187
1268	2151
1272.871	2112
1277.737	2094
1282.599	2077
1287.455	2098
1292.306	2087
1297.153	2112
1301.995	2095
1306.832	2119
1311.664	2140
1316.491	2140
1321.314	2141
1326.132	2117
1330.945	2100
1335.753	2051
1340.556	2038
1345.354	2022
1350.148	1985
1354.937	1943
1359.722	1931
1364.501	1891
1369.276	1850
1374.046	1817
1378.811	1796
1383.572	1787
1388.327	1791
1393.079	1805
1397.825	1793
1402.567	1768
1407.304	1777
1412.036	1793
1416.764	1795
1421.487	1777
1426.205	1802
1430.919	1800
1435.628	1802
1440.333	1830
1445.032	1847
1449.727	1867
1454.418	1874
1459.104	1850
1463.785	1829
1468.462	1827
1473.134	1771
1477.802	1750
1482.465	1690
1487.123	1692
1491.777	1636
1496.426	1624
1501.071	1617
1505.711	1612
1510.347	1608
1514.978	1612
1519.604	1612
1524.226	1598
1528.844	1592
1533.457	1573
1538.065	1568
1542.669	1569
1547.269	1579
1551.864	1564
1556.454	1603
1561.041	1608
1565.622	1624
1570.199	1612
1574.772	1636
1579.34	1659
1583.904	1671
1588.464	1679
1593.019	1685
1597.569	1684
1602.115	1686
1606.657	1668
1611.195	1678
1615.728	1664
1620.256	1671
1624.78	1668
1629.3	1661
1633.816	1665
1638.327	1679
1642.834	1693
1647.336	1705
1651.834	1706
1656.328	1694
1660.817	1705
1665.302	1684
1669.783	1660
1674.259	1617
1678.732	1586
1683.199	1550
1687.663	1486
1692.122	1451
1696.577	1379
1701.028	1331
1705.474	1284
1709.917	1249
1714.355	1229
1718.788	1199
1723.218	1211
1727.643	1212
1732.064	1204
1736.481	1197
1740.893	1169
1745.301	1135
1749.705	1115
1754.105	1115
1758.501	1085
1762.893	1073
1767.28	1042
1771.663	1029
1776.042	1044
1780.417	1019
1784.787	1022
1789.154	991
1793.516	1001
1797.874	978
1802.228	957
1806.578	952
1810.924	954
1815.266	940
1819.603	932
1823.937	931
1828.266	931
1832.591	928
1836.913	923
1841.23	937
1845.543	941
1849.852	921
1854.156	931
1858.457	931
1862.754	928
1867.047	917
1871.335	930
1875.62	942
1879.9	942
1884.177	924
1888.449	912
1892.718	909
1896.982	893
1901.243	874
1905.499	879
1909.752	866
1914	843
1918.245	839
1922.485	830
1926.722	829
1930.954	822
1935.183	802
1939.408	812
1943.628	806
1947.845	804
1952.058	796
1956.267	781
1960.472	775
1964.673	773
1968.87	770
1973.063	769
1977.252	753
1981.438	770
1985.619	756
1989.797	747
1993.971	752
1998.14	762
2002.306	755
2006.469	756
2010.627	765
2014.781	754
2018.932	749
2023.078	758
2027.221	747
2031.36	741
2035.495	740
2039.627	722
2043.754	709
2047.878	704
2051.998	705
2056.114	704
2060.226	706
2064.334	700
2068.439	698
2072.54	690
2076.637	707
2080.73	690
2084.82	678
2088.906	677
2092.988	662
2097.066	673
2101.14	661
2105.211	643
2109.278	642
2113.342	630
2117.401	618
2121.457	626
2125.509	617
2129.558	619
2133.602	630
2137.643	630
2141.681	599
2145.714	619
2149.744	607
2153.77	606
2157.793	610
2161.812	621
2165.827	603
2169.838	591
2173.846	582
2177.851	570
2181.851	564
2185.848	552
2189.841	559
2193.831	544
2197.817	547
2201.799	542
2205.778	541
2209.753	524
2213.725	535
2217.693	537
2221.657	530
2225.618	540
2229.575	541
2233.529	521
2237.479	518
2241.425	507
2245.368	498
2249.307	501
2253.243	486
2257.175	479
2261.104	484
2265.029	466
2268.95	479
2272.868	463
2276.783	457
2280.694	443
2284.601	448
2288.505	441
2292.405	441
2296.302	442
2300.195	423
2304.085	418
2307.971	396
2311.854	402
2315.734	395
2319.609	394
2323.482	393
2327.351	383
2331.216	410
2335.078	415
2338.937	403
2342.792	378
2346.643	364
2350.492	378
2354.336	373
2358.178	374
2362.015	369
2365.85	373
2369.681	366
2373.508	375
2377.333	391
2381.153	374
2384.971	387
2388.785	367
2392.595	374
2396.402	356
2400.206	366
2404.007	361
2407.804	352
2411.597	367
2415.388	359
2419.174	358
2422.958	350
2426.738	351
2430.515	345
2434.289	353
2438.059	344
2441.825	343
2445.589	330
2449.349	327
2453.106	319
2456.859	322
2460.61	321
2464.356	313
2468.1	309
2471.84	307
2475.577	309
2479.311	300
2483.041	294
2486.768	303
2490.492	292
2494.213	294
2497.93	291
2501.644	290
2505.355	283
2509.062	291
2512.766	277
2516.467	275
2520.165	273
2523.859	265
2527.551	274
2531.239	265
2534.923	250
2538.605	262
2542.283	249
2545.958	245
2549.63	243
2553.299	246
2556.964	247
2560.626	232
2564.285	237
2567.941	233
2571.594	244
2575.243	230
2578.89	228
2582.533	229
2586.173	215
2589.809	218
2593.443	216
2597.073	210
2600.701	206
2604.325	206
2607.946	199
2611.564	209
2615.178	199
2618.79	193
2622.398	193
2626.004	202
2629.606	197
2633.205	186
2636.801	189
2640.394	186
2643.983	185
2647.57	183
2651.153	190
2654.734	183
2658.311	173
2661.885	174
2665.456	175
2669.025	187
2672.589	180
2676.151	172
2679.71	173
2683.266	162
2686.819	161
2690.368	159
2693.915	159
2697.458	158
2700.999	155
2704.536	156
2708.071	151
2711.602	142
2715.13	146
2718.656	133
2722.178	134
2725.697	133
2729.214	126
2732.727	136
2736.237	131
2739.744	123
2743.249	128
2746.75	126
2750.248	122
2753.743	119
2757.236	115
2760.725	119
2764.211	100
2767.695	102
2771.175	106
2774.652	96
2778.127	103
2781.598	107
2785.067	113
2788.532	106
2791.995	98
2795.455	102
2798.911	105
2802.365	107
2805.816	120
2809.264	98
2812.709	113
2816.151	108
2819.59	115
2823.026	105
2826.46	109
2829.89	114
2833.318	100
2836.742	110
2840.164	109
2843.583	108
2846.999	115
2850.412	105
2853.822	111
2857.229	110
2860.634	121
2864.035	129
2867.434	128
2870.83	130
2874.223	136
2877.613	144
2881	153
2884.385	158
2887.766	134
2891.145	145
2894.521	148
2897.894	155
2901.264	155
2904.631	149
2907.996	156
2911.358	155
2914.717	158
2918.073	161
2921.426	163
2924.777	172
2928.124	177
2931.469	179
2934.811	181
2938.15	179
2941.487	195
2944.821	185
2948.152	184
2951.48	187
2954.805	192
2958.128	184
2961.447	172
2964.765	178
2968.079	191
2971.39	184
2974.699	193
2978.005	183
2981.308	193
2984.609	199
2987.907	180
2991.202	197
2994.494	192
2997.784	196
3001.07	195
3004.355	214
3007.636	210
3010.915	210
3014.191	214
3017.464	214
3020.734	214
3024.002	220
3027.267	227
3030.53	236
3033.789	240
3037.046	241
3040.301	235
3043.552	263
3046.801	255
3050.048	272
3053.291	275
3056.532	292
3059.771	296
3063.006	305
3066.239	314
3069.469	329
3072.697	332
3075.922	353
3079.144	355
3082.364	372
3085.581	376
3088.795	387
3092.007	380
3095.216	401
3098.423	405
3101.627	421
3104.828	438
3108.026	430
3111.222	447
3114.416	452
3117.607	464
3120.795	467
3123.98	471
3127.163	502
3130.344	499
3133.521	511
3136.696	527
3139.869	540
3143.039	551
3146.206	554
3149.371	543
3152.533	577
3155.693	575
3158.85	591
3162.005	587
3165.157	589
3168.306	593
3171.453	595
3174.597	587
3177.739	597
3180.878	602
3184.014	623
3187.149	620
3190.28	612
3193.409	607
3196.536	608
3199.659	618
3202.781	626
3205.9	618
3209.016	629
3212.13	629
3215.241	615
3218.35	606
3221.456	594
3224.56	592
3227.661	589
3230.76	580
3233.856	579
3236.95	550
3240.041	563
3243.13	544
3246.216	535
3249.3	523
3252.382	526
3255.46	525
3258.537	521
3261.611	514
3264.682	514
3267.751	506
3270.818	499
3273.882	490
3276.943	497
3280.002	490
3283.059	492
3286.113	492
3289.165	485
3292.214	472
3295.261	467
3298.306	461
3301.348	451
3304.387	440
3307.425	452
3310.459	439
3313.492	438
3316.521	428
3319.549	424
3322.574	436
3325.597	418
3328.617	418
3331.635	424
3334.65	419
3337.663	413
3340.674	413
3343.682	414
3346.688	404
3349.691	408
3352.692	396
3355.691	404
3358.687	401
3361.681	399
3364.673	379
3367.662	388
3370.649	374
3373.633	360
3376.615	350
3379.595	358
3382.572	356
3385.547	359
3388.52	350
3391.49	335
3394.458	331
3397.424	333
3400.387	309
3403.348	311
3406.307	307
3409.263	313
3412.217	303
3415.168	308
3418.118	295
3421.065	289
3424.009	284
3426.951	289
3429.891	269
3432.829	265
3435.764	261
3438.697	254
3441.628	251
3444.557	230
3447.483	221
3450.407	214
3453.328	207
3456.247	205
3459.164	189
3462.079	180
3464.991	171
3467.902	165
3470.809	169
3473.715	148
3476.618	152
3479.519	144
3482.418	136
3485.315	125
3488.209	109
3491.101	111
3493.99	106
3496.878	103
3499.763	103
3502.646	95
3505.527	75
3508.405	78
3511.281	67
3514.155	66
3517.027	62
3519.897	49
3522.764	37
3525.629	46
3528.492	28
3531.352	20
3534.211	16
3537.067	8
3539.921	14
3542.773	2
3545.622	-8
3548.469	-14
3551.315	-7
3554.157	-14
3556.998	-31
3559.837	-22
3562.673	-31
3565.507	-26
3568.339	-34
3571.169	-43
3573.996	-37
3576.822	-37
3579.645	-44
3582.466	-41
3585.285	-54
3588.101	-48
3590.916	-59
3593.728	-63
3596.538	-65
3599.346	-73
3602.152	-73
3604.956	-73
3607.757	-67
3610.556	-74
3613.354	-70
3616.149	-80
3618.942	-90
3621.732	-84
3624.521	-89
3627.307	-80
3630.092	-88
3632.874	-79
3635.654	-91
3638.432	-89
3641.208	-92
3643.982	-97
3646.753	-101
3649.523	-97
3652.29	-96
3655.055	-93
3657.818	-101
3660.579	-103
3663.338	-111
3666.095	-105
3668.849	-114
3671.602	-110
3674.352	-114
3677.101	-114
3679.847	-114
3682.591	-113
3685.333	-113
3688.073	-114
3690.811	-117
3693.547	-124
3696.281	-118
3699.013	-121
3701.742	-120
3704.47	-117
3707.195	-119
3709.919	-123
3712.64	-130
3715.359	-129
3718.076	-124
3720.792	-128
3723.505	-126
3726.216	-119
3728.925	-133
3731.632	-127
3734.336	-130
3737.039	-131
3739.74	-125
3742.439	-134
3745.136	-125
3747.83	-131
3750.523	-135
3753.213	-138
3755.902	-131
3758.589	-133
3761.273	-124
3763.956	-124
3766.636	-131
3769.315	-129
3771.991	-131
3774.665	-137
3777.338	-130
3780.008	-128
3782.677	-134
3785.343	-131
3788.007	-133
3790.67	-137
3793.33	-130
3795.989	-135
3798.645	-133
3801.299	-134
3803.952	-139
3806.602	-129
3809.251	-140
3811.897	-143
3814.542	-142
3817.184	-130
3819.825	-135
3822.463	-133
3825.1	-132
3827.735	-136
3830.367	-138
3832.998	-140
3835.627	-138
3838.253	-141
3840.878	-135
3843.501	-130
3846.122	-136
3848.741	-138
3851.358	-136
3853.973	-140
3856.586	-135
3859.197	-141
3861.806	-133
3864.414	-136
3867.019	-128
3869.622	-133
3872.224	-129
3874.823	-115
3877.421	-102
3880.016	-79
3882.61	-62
3885.202	-54
3887.792	-70
3890.38	-99
3892.966	-123
3895.55	-133
3898.132	-137
3900.713	-134
3903.291	-137
3905.868	-135
3908.442	-136
3911.015	-139
3913.586	-138
3916.155	-144
3918.722	-144
3921.287	-138
3923.85	-136
3926.411	-136
3928.971	-139
3931.528	-142
3934.084	-139
3936.638	-135
3939.19	-141
3941.74	-139
3944.288	-141
3946.834	-136
3949.378	-141
3951.921	-143
3954.462	-147
3957	-138
3959.537	-133
3962.072	-140
3964.606	-131
3967.137	-136
3969.667	-141
3972.194	-142
3974.72	-143
3977.244	-136
3979.766	-140
3982.286	-136
3984.805	-140
3987.321	-138
3989.836	-129
3992.349	-144
3994.86	-139
3997.369	-141
3999.877	-142
4002.382	-133
4004.886	-141
4007.388	-142
4009.888	-134
4012.386	-138
4014.883	-136
4017.377	-136
4019.87	-136
4022.361	-140
4024.85	-140
4027.338	-135
4029.823	-135
4032.307	-132
4034.789	-139
4037.269	-134
4039.747	-134
4042.224	-138
4044.699	-139
4047.172	-133
4049.643	-132
4052.112	-137
4054.58	-136
4057.046	-139
4059.51	-144
4061.972	-138
4064.432	-136
4066.891	-138
4069.348	-133
4071.803	-143
4074.256	-137
4076.708	-138
4079.158	-138
4081.606	-132
4084.052	-143
4086.497	-138
4088.939	-130
4091.38	-137
4093.819	-137
4096.257	-143
4098.693	-140
4101.127	-145
4103.559	-140
4105.989	23
4108.418	20
4110.845	13
4113.27	8
4115.694	1
4118.115	2
4120.535	-140
4122.954	-138
4125.37	-133
4127.785	-137
4130.198	-138
4132.609	-136
4135.019	-139
4137.427	-146
4139.833	-142
4142.237	-144
