Data from 2018-2-8_conc=4_n=6_RamanShift_04.txt Node
Date: Mon Mar 12 15:26:58 IST 2018
User: aro
Spectrometer: QEPB0276
Trigger mode: 0
Integration Time (sec): 3.000000E1
Scans to average: 1
Electric dark correction enabled: true
Nonlinearity correction enabled: false
Boxcar width: 0
XAxis mode: Raman Shifts
Number of Pixels in Spectrum: 1044
>>>>>Begin Spectral Data<<<<<
160.701	11
166.742	40
172.777	117
178.805	373
184.826	1026
190.841	2208
196.849	3665
202.85	4839
208.845	5276
214.833	5279
220.815	5179
226.789	5176
232.758	5158
238.719	5176
244.674	5138
250.623	5083
256.565	5047
262.5	4950
268.429	4865
274.351	4838
280.267	4781
286.176	4761
292.079	4736
297.975	4738
303.865	4691
309.748	4687
315.625	4676
321.495	4703
327.359	4642
333.217	4644
339.068	4680
344.912	4650
350.751	4688
356.583	4705
362.408	4697
368.227	4706
374.04	4725
379.847	4726
385.647	4767
391.44	4782
397.228	4805
403.009	4831
408.784	4830
414.553	4820
420.315	4848
426.071	4867
431.821	4864
437.565	4825
443.302	4847
449.033	4826
454.758	4823
460.477	4784
466.189	4754
471.896	4741
477.596	4714
483.29	4698
488.978	4694
494.66	4677
500.335	4597
506.005	4485
511.668	4388
517.325	4239
522.977	4153
528.622	4081
534.261	3987
539.894	3965
545.521	3945
551.141	3923
556.756	3890
562.365	3853
567.968	3847
573.565	3813
579.155	3787
584.74	3789
590.319	3764
595.892	3764
601.459	3770
607.02	3731
612.575	3705
618.124	3678
623.667	3654
629.204	3619
634.735	3555
640.261	3572
645.781	3569
651.294	3543
656.802	3538
662.304	3529
667.8	3498
673.29	3512
678.775	3487
684.254	3462
689.726	3451
695.193	3465
700.655	3437
706.11	3398
711.56	3385
717.004	3380
722.442	3345
727.874	3349
733.301	3366
738.722	3326
744.137	3326
749.547	3302
754.951	3311
760.349	3354
765.741	3330
771.128	3312
776.509	3356
781.885	3390
787.254	3346
792.618	3368
797.977	3350
803.33	3355
808.677	3301
814.019	3289
819.355	3252
824.686	3217
830.011	3225
835.33	3210
840.644	3230
845.952	3219
851.255	3217
856.552	3187
861.844	3186
867.13	3174
872.41	3148
877.686	3114
882.955	3098
888.219	3050
893.478	3037
898.731	2981
903.979	2946
909.221	2927
914.458	2915
919.69	2919
924.916	2926
930.136	2940
935.351	2919
940.561	2925
945.766	2927
950.965	2909
956.158	2881
961.347	2861
966.529	2829
971.707	2761
976.879	2754
982.046	2711
987.208	2693
992.364	2714
997.515	2706
1002.66	2760
1007.801	2764
1012.936	2814
1018.066	2782
1023.19	2782
1028.309	2789
1033.423	2791
1038.532	2774
1043.636	2750
1048.734	2725
1053.827	2712
1058.915	2645
1063.998	2649
1069.075	2627
1074.147	2621
1079.214	2654
1084.276	2649
1089.333	2679
1094.385	2692
1099.431	2664
1104.472	2660
1109.509	2644
1114.54	2620
1119.565	2584
1124.586	2551
1129.602	2521
1134.613	2493
1139.618	2495
1144.619	2488
1149.614	2463
1154.604	2496
1159.589	2483
1164.57	2490
1169.545	2506
1174.515	2527
1179.48	2483
1184.44	2470
1189.395	2474
1194.345	2430
1199.29	2424
1204.23	2437
1209.165	2428
1214.095	2442
1219.021	2454
1223.941	2462
1228.856	2486
1233.766	2463
1238.672	2478
1243.572	2468
1248.467	2462
1253.358	2426
1258.244	2397
1263.124	2347
1268	2321
1272.871	2287
1277.737	2265
1282.599	2265
1287.455	2248
1292.306	2274
1297.153	2262
1301.995	2285
1306.832	2287
1311.664	2326
1316.491	2317
1321.314	2301
1326.132	2275
1330.945	2265
1335.753	2248
1340.556	2195
1345.354	2172
1350.148	2143
1354.937	2096
1359.722	2057
1364.501	2034
1369.276	2023
1374.046	1976
1378.811	1963
1383.572	1940
1388.327	1936
1393.079	1937
1397.825	1934
1402.567	1948
1407.304	1943
1412.036	1952
1416.764	1949
1421.487	1933
1426.205	1943
1430.919	1948
1435.628	1961
1440.333	1994
1445.032	2004
1449.727	1999
1454.418	2033
1459.104	2022
1463.785	1973
1468.462	1956
1473.134	1909
1477.802	1878
1482.465	1839
1487.123	1795
1491.777	1787
1496.426	1771
1501.071	1747
1505.711	1758
1510.347	1744
1514.978	1738
1519.604	1738
1524.226	1722
1528.844	1718
1533.457	1709
1538.065	1710
1542.669	1692
1547.269	1691
1551.864	1696
1556.454	1707
1561.041	1731
1565.622	1729
1570.199	1738
1574.772	1754
1579.34	1791
1583.904	1798
1588.464	1802
1593.019	1796
1597.569	1831
1602.115	1826
1606.657	1806
1611.195	1809
1615.728	1798
1620.256	1802
1624.78	1788
1629.3	1795
1633.816	1826
1638.327	1815
1642.834	1822
1647.336	1817
1651.834	1844
1656.328	1834
1660.817	1824
1665.302	1810
1669.783	1771
1674.259	1735
1678.732	1690
1683.199	1648
1687.663	1607
1692.122	1546
1696.577	1482
1701.028	1432
1705.474	1376
1709.917	1333
1714.355	1292
1718.788	1281
1723.218	1308
1727.643	1286
1732.064	1299
1736.481	1281
1740.893	1254
1745.301	1227
1749.705	1201
1754.105	1188
1758.501	1172
1762.893	1144
1767.28	1140
1771.663	1128
1776.042	1095
1780.417	1103
1784.787	1088
1789.154	1084
1793.516	1064
1797.874	1049
1802.228	1037
1806.578	1027
1810.924	1030
1815.266	1005
1819.603	991
1823.937	1008
1828.266	1001
1832.591	994
1836.913	1002
1841.23	1000
1845.543	997
1849.852	1011
1854.156	993
1858.457	1003
1862.754	1004
1867.047	1000
1871.335	1008
1875.62	1020
1879.9	1011
1884.177	982
1888.449	968
1892.718	961
1896.982	962
1901.243	962
1905.499	925
1909.752	912
1914	911
1918.245	906
1922.485	883
1926.722	889
1930.954	884
1935.183	877
1939.408	862
1943.628	872
1947.845	854
1952.058	844
1956.267	837
1960.472	847
1964.673	829
1968.87	817
1973.063	822
1977.252	803
1981.438	811
1985.619	799
1989.797	816
1993.971	810
1998.14	817
2002.306	818
2006.469	814
2010.627	825
2014.781	814
2018.932	809
2023.078	816
2027.221	811
2031.36	811
2035.495	794
2039.627	786
2043.754	777
2047.878	756
2051.998	758
2056.114	758
2060.226	756
2064.334	743
2068.439	745
2072.54	743
2076.637	736
2080.73	742
2084.82	737
2088.906	723
2092.988	719
2097.066	716
2101.14	695
2105.211	699
2109.278	685
2113.342	678
2117.401	680
2121.457	667
2125.509	662
2129.558	661
2133.602	668
2137.643	664
2141.681	667
2145.714	651
2149.744	658
2153.77	658
2157.793	647
2161.812	645
2165.827	659
2169.838	641
2173.846	629
2177.851	611
2181.851	605
2185.848	597
2189.841	600
2193.831	590
2197.817	581
2201.799	567
2205.778	579
2209.753	585
2213.725	579
2217.693	586
2221.657	574
2225.618	578
2229.575	569
2233.529	568
2237.479	569
2241.425	547
2245.368	548
2249.307	546
2253.243	529
2257.175	521
2261.104	531
2265.029	511
2268.95	525
2272.868	502
2276.783	493
2280.694	481
2284.601	487
2288.505	478
2292.405	475
2296.302	455
2300.195	458
2304.085	456
2307.971	429
2311.854	452
2315.734	431
2319.609	430
2323.482	427
2327.351	436
2331.216	438
2335.078	447
2338.937	420
2342.792	411
2346.643	395
2350.492	409
2354.336	405
2358.178	410
2362.015	421
2365.85	405
2369.681	410
2373.508	408
2377.333	415
2381.153	404
2384.971	408
2388.785	410
2392.595	408
2396.402	398
2400.206	402
2404.007	390
2407.804	405
2411.597	385
2415.388	387
2419.174	383
2422.958	378
2426.738	382
2430.515	388
2434.289	382
2438.059	373
2441.825	372
2445.589	375
2449.349	361
2453.106	353
2456.859	358
2460.61	354
2464.356	332
2468.1	339
2471.84	334
2475.577	337
2479.311	314
2483.041	324
2486.768	330
2490.492	326
2494.213	338
2497.93	334
2501.644	319
2505.355	316
2509.062	308
2512.766	319
2516.467	313
2520.165	303
2523.859	301
2527.551	302
2531.239	292
2534.923	282
2538.605	283
2542.283	277
2545.958	281
2549.63	283
2553.299	269
2556.964	279
2560.626	266
2564.285	257
2567.941	262
2571.594	264
2575.243	256
2578.89	254
2582.533	255
2586.173	239
2589.809	231
2593.443	244
2597.073	237
2600.701	224
2604.325	230
2607.946	243
2611.564	224
2615.178	236
2618.79	222
2622.398	226
2626.004	211
2629.606	220
2633.205	219
2636.801	220
2640.394	212
2643.983	209
2647.57	218
2651.153	210
2654.734	209
2658.311	202
2661.885	203
2665.456	196
2669.025	199
2672.589	195
2676.151	200
2679.71	191
2683.266	184
2686.819	182
2690.368	184
2693.915	178
2697.458	170
2700.999	175
2704.536	173
2708.071	158
2711.602	162
2715.13	171
2718.656	162
2722.178	152
2725.697	156
2729.214	147
2732.727	157
2736.237	161
2739.744	138
2743.249	147
2746.75	146
2750.248	138
2753.743	132
2757.236	134
2760.725	134
2764.211	130
2767.695	122
2771.175	115
2774.652	116
2778.127	125
2781.598	123
2785.067	128
2788.532	125
2791.995	129
2795.455	121
2798.911	122
2802.365	126
2805.816	128
2809.264	127
2812.709	132
2816.151	127
2819.59	127
2823.026	122
2826.46	117
2829.89	114
2833.318	122
2836.742	129
2840.164	132
2843.583	124
2846.999	132
2850.412	122
2853.822	128
2857.229	128
2860.634	137
2864.035	136
2867.434	141
2870.83	155
2874.223	163
2877.613	157
2881	178
2884.385	164
2887.766	166
2891.145	163
2894.521	166
2897.894	176
2901.264	166
2904.631	170
2907.996	171
2911.358	174
2914.717	174
2918.073	183
2921.426	187
2924.777	198
2928.124	197
2931.469	196
2934.811	203
2938.15	207
2941.487	219
2944.821	213
2948.152	222
2951.48	214
2954.805	212
2958.128	204
2961.447	207
2964.765	212
2968.079	201
2971.39	204
2974.699	213
2978.005	209
2981.308	206
2984.609	214
2987.907	207
2991.202	210
2994.494	217
2997.784	211
3001.07	219
3004.355	231
3007.636	230
3010.915	241
3014.191	234
3017.464	234
3020.734	235
3024.002	241
3027.267	253
3030.53	253
3033.789	263
3037.046	275
3040.301	266
3043.552	280
3046.801	289
3050.048	301
3053.291	306
3056.532	315
3059.771	325
3063.006	334
3066.239	355
3069.469	355
3072.697	351
3075.922	379
3079.144	381
3082.364	389
3085.581	402
3088.795	416
3092.007	410
3095.216	419
3098.423	433
3101.627	451
3104.828	452
3108.026	466
3111.222	480
3114.416	483
3117.607	502
3120.795	496
3123.98	503
3127.163	531
3130.344	550
3133.521	549
3136.696	573
3139.869	568
3143.039	581
3146.206	585
3149.371	594
3152.533	614
3155.693	609
3158.85	614
3162.005	621
3165.157	630
3168.306	627
3171.453	629
3174.597	635
3177.739	632
3180.878	626
3184.014	641
3187.149	648
3190.28	648
3193.409	655
3196.536	651
3199.659	648
3202.781	652
3205.9	668
3209.016	665
3212.13	660
3215.241	663
3218.35	656
3221.456	651
3224.56	640
3227.661	621
3230.76	614
3233.856	617
3236.95	595
3240.041	588
3243.13	594
3246.216	583
3249.3	583
3252.382	563
3255.46	555
3258.537	553
3261.611	552
3264.682	538
3267.751	534
3270.818	528
3273.882	536
3276.943	518
3280.002	525
3283.059	516
3286.113	524
3289.165	509
3292.214	511
3295.261	497
3298.306	507
3301.348	488
3304.387	474
3307.425	480
3310.459	476
3313.492	458
3316.521	456
3319.549	451
3322.574	458
3325.597	452
3328.617	460
3331.635	448
3334.65	449
3337.663	433
3340.674	454
3343.682	437
3346.688	434
3349.691	435
3352.692	437
3355.691	437
3358.687	431
3361.681	437
3364.673	429
3367.662	414
3370.649	408
3373.633	396
3376.615	402
3379.595	388
3382.572	393
3385.547	385
3388.52	379
3391.49	371
3394.458	367
3397.424	353
3400.387	344
3403.348	338
3406.307	338
3409.263	342
3412.217	336
3415.168	333
3418.118	331
3421.065	313
3424.009	301
3426.951	311
3429.891	298
3432.829	288
3435.764	292
3438.697	276
3441.628	271
3444.557	258
3447.483	252
3450.407	244
3453.328	231
3456.247	225
3459.164	222
3462.079	205
3464.991	194
3467.902	196
3470.809	183
3473.715	175
3476.618	172
3479.519	158
3482.418	156
3485.315	157
3488.209	139
3491.101	132
3493.99	138
3496.878	124
3499.763	112
3502.646	107
3505.527	106
3508.405	98
3511.281	90
3514.155	92
3517.027	73
3519.897	67
3522.764	63
3525.629	57
3528.492	51
3531.352	46
3534.211	36
3537.067	27
3539.921	30
3542.773	12
3545.622	10
3548.469	5
3551.315	15
3554.157	-5
3556.998	-5
3559.837	-13
3562.673	-9
3565.507	-15
3568.339	-20
3571.169	-31
3573.996	-23
3576.822	-28
3579.645	-28
3582.466	-28
3585.285	-40
3588.101	-29
3590.916	-42
3593.728	-54
3596.538	-49
3599.346	-49
3602.152	-54
3604.956	-51
3607.757	-56
3610.556	-62
3613.354	-63
3616.149	-72
3618.942	-64
3621.732	-72
3624.521	-69
3627.307	-77
3630.092	-75
3632.874	-76
3635.654	-81
3638.432	-78
3641.208	-75
3643.982	-84
3646.753	-87
3649.523	-88
3652.29	-90
3655.055	-88
3657.818	-90
3660.579	-90
3663.338	-86
3666.095	-97
3668.849	-102
3671.602	-100
3674.352	-103
3677.101	-100
3679.847	-99
3682.591	-104
3685.333	-99
3688.073	-99
3690.811	-102
3693.547	-112
3696.281	-111
3699.013	-113
3701.742	-113
3704.47	-113
3707.195	-110
3709.919	-112
3712.64	-115
3715.359	-120
3718.076	-113
3720.792	-116
3723.505	-117
3726.216	-115
3728.925	-118
3731.632	-117
3734.336	-127
3737.039	-121
3739.74	-115
3742.439	-127
3745.136	-115
3747.83	-123
3750.523	-119
3753.213	-124
3755.902	-118
3758.589	-121
3761.273	-113
3763.956	-118
3766.636	-122
3769.315	-115
3771.991	-120
3774.665	-130
3777.338	-117
3780.008	-127
3782.677	-122
3785.343	-125
3788.007	-123
3790.67	-126
3793.33	-120
3795.989	-124
3798.645	-122
3801.299	-126
3803.952	-127
3806.602	-116
3809.251	-129
3811.897	-130
3814.542	-127
3817.184	-125
3819.825	-126
3822.463	-124
3825.1	-125
3827.735	-126
3830.367	-123
3832.998	-131
3835.627	-130
3838.253	-123
3840.878	-127
3843.501	-125
3846.122	-125
3848.741	-133
3851.358	-125
3853.973	-134
3856.586	-126
3859.197	-136
3861.806	-124
3864.414	-123
3867.019	-121
3869.622	-129
3872.224	-117
3874.823	-118
3877.421	-101
3880.016	-75
3882.61	-56
3885.202	-66
3887.792	-80
3890.38	-94
3892.966	-118
3895.55	-127
3898.132	-123
3900.713	-127
3903.291	-125
3905.868	-126
3908.442	-122
3911.015	-131
3913.586	-131
3916.155	-133
3918.722	-134
3921.287	-135
3923.85	-125
3926.411	-129
3928.971	-129
3931.528	-130
3934.084	-133
3936.638	-125
3939.19	-134
3941.74	-129
3944.288	-133
3946.834	-125
3949.378	-127
3951.921	-129
3954.462	-140
3957	-129
3959.537	-128
3962.072	-131
3964.606	-124
3967.137	-125
3969.667	-127
3972.194	-134
3974.72	-128
3977.244	-127
3979.766	-131
3982.286	-125
3984.805	-128
3987.321	-128
3989.836	-120
3992.349	-126
3994.86	-125
3997.369	-130
3999.877	-128
4002.382	-122
4004.886	-127
4007.388	-130
4009.888	-123
4012.386	-125
4014.883	-127
4017.377	-128
4019.87	-129
4022.361	-127
4024.85	-128
4027.338	-126
4029.823	-123
4032.307	-125
4034.789	-130
4037.269	-129
4039.747	-131
4042.224	-127
4044.699	-130
4047.172	-125
4049.643	-122
4052.112	-125
4054.58	-131
4057.046	-128
4059.51	-128
4061.972	-128
4064.432	-123
4066.891	-130
4069.348	-125
4071.803	-131
4074.256	-127
4076.708	-124
4079.158	-131
4081.606	-125
4084.052	-131
4086.497	-127
4088.939	-117
4091.38	-125
4093.819	-128
4096.257	-137
4098.693	-128
4101.127	-131
4103.559	-129
4105.989	1
4108.418	-15
4110.845	-7
4113.27	-9
4115.694	-13
4118.115	-10
4120.535	-130
4122.954	-133
4125.37	-126
4127.785	-132
4130.198	-126
4132.609	-125
4135.019	-134
4137.427	-135
4139.833	-134
4142.237	-138
